{
  "resourceType": "Parameters",
  "id": "all-gaps-Group_gaps-subject-group01-report",
  "parameter": [
    {
      "name": "Gaps in Care Report - Patient/numer-EXM130",
      "resource": {
        "resourceType": "Bundle",
        "type": "document",
        "timestamp": "2020-09-08T12:15:45.693-06:00",
        "entry": [
          {
            "resource": {
              "resourceType": "Composition",
              "status": "final",
              "type": {
                "coding": [
                  {
                    "system": "http://hl7.org/fhir/us/davinci-deqm/CodeSystem/gaps-doc-type",
                    "code": "gaps-doc",
                    "display": "Gaps in Care Report"
                  }
                ]
              },
              "subject": {
                "reference": "Patient/numer-EXM130"
              },
              "date": "2020-09-08T12:15:45-06:00",
              "title": "Care Gap Report for Patient/numer-EXM130",
              "section": [
                {
                  "title": "Cervical Cancer Screening",
                  "focus": {
                    "reference": "MeasureReport/1ee6af2b-97f0-42e3-8300-7e02a4704309"
                  },
                  "entry": [
                    {
                      "reference": "DetectedIssue/66d44a5a-445d-4134-aecd-be13468d8f57"
                    }
                  ]
                }
              ]
            }
          },
          {
            "resource": {
              "resourceType": "MeasureReport",
              "id": "1ee6af2b-97f0-42e3-8300-7e02a4704309",
              "meta": {
                "profile": [
                  "http://hl7.org/fhir/us/davinci-deqm/StructureDefinition/indv-measurereport-deqm"
                ]
              },
              "status": "complete",
              "type": "individual",
              "measure": "Measure/measure-EXM124-9.0.000",
              "subject": {
                "reference": "Patient/numer-EXM130"
              },
              "date": "2020-09-08T12:15:48-06:00",
              "reporter": {
                "reference": "Organization/1553"
              },
              "period": {
                "start": "2020-01-01T00:00:00-07:00",
                "end": "2020-12-31T00:00:00-07:00"
              },
              "improvementNotation": {
                "coding": [
                  {
                    "system": "http://terminology.hl7.org/CodeSystem/measure-improvement-notation",
                    "code": "increase"
                  }
                ]
              },
              "group": [
                {
                  "id": "group-1",
                  "population": [
                    {
                      "code": {
                        "coding": [
                          {
                            "system": "http://terminology.hl7.org/CodeSystem/measure-population",
                            "code": "initial-population",
                            "display": "Initial Population"
                          }
                        ]
                      },
                      "count": 0
                    },
                    {
                      "code": {
                        "coding": [
                          {
                            "system": "http://terminology.hl7.org/CodeSystem/measure-population",
                            "code": "numerator",
                            "display": "Numerator"
                          }
                        ]
                      },
                      "count": 0
                    },
                    {
                      "code": {
                        "coding": [
                          {
                            "system": "http://terminology.hl7.org/CodeSystem/measure-population",
                            "code": "denominator",
                            "display": "Denominator"
                          }
                        ]
                      },
                      "count": 0
                    },
                    {
                      "code": {
                        "coding": [
                          {
                            "system": "http://terminology.hl7.org/CodeSystem/measure-population",
                            "code": "denominator-exclusion",
                            "display": "Denominator Exclusion"
                          }
                        ]
                      },
                      "count": 0
                    }
                  ]
                }
              ],
              "evaluatedResource": [
                {
                  "extension": [
                    {
                      "url": "http://hl7.org/fhir/us/davinci-deqm/StructureDefinition/extension-populationReference",
                      "valueCodeableConcept": {
                        "coding": [
                          {
                            "system": "http://teminology.hl7.org/CodeSystem/measure-population",
                            "code": "initial-population",
                            "display": "initial-population"
                          }
                        ]
                      }
                    }
                  ],
                  "reference": "Patient/numer-EXM130"
                },
                {
                  "extension": [
                    {
                      "url": "http://hl7.org/fhir/us/davinci-deqm/StructureDefinition/extension-populationReference",
                      "valueCodeableConcept": {
                        "coding": [
                          {
                            "system": "http://teminology.hl7.org/CodeSystem/measure-population",
                            "code": "initial-population",
                            "display": "initial-population"
                          }
                        ]
                      }
                    }
                  ],
                  "reference": "Encounter/numer-EXM130-4"
                }
              ]
            }
          },
          {
            "resource": {
              "resourceType": "DetectedIssue",
              "id": "66d44a5a-445d-4134-aecd-be13468d8f57",
              "status": "final",
              "code": {
                "coding": [
                  {
                    "system": "http://hl7.org/fhir/us/davinci-deqm/CodeSystem/detectedissue-category",
                    "code": "care-gap",
                    "display": "Gap in Care Detected"
                  }
                ]
              },
              "patient": {
                "reference": "Patient/numer-EXM130"
              },
              "evidence": [
                {
                  "detail": [
                    {
                      "reference": "MeasureReport/1ee6af2b-97f0-42e3-8300-7e02a4704309"
                    }
                  ]
                }
              ]
            }
          }
        ]
      }
    },
    {
      "name": "Gaps in Care Report - Patient/numer-EXM125",
      "resource": {
        "resourceType": "Bundle",
        "type": "document",
        "timestamp": "2020-09-08T12:15:48.394-06:00",
        "entry": [
          {
            "resource": {
              "resourceType": "Composition",
              "status": "final",
              "type": {
                "coding": [
                  {
                    "system": "http://hl7.org/fhir/us/davinci-deqm/CodeSystem/gaps-doc-type",
                    "code": "gaps-doc",
                    "display": "Gaps in Care Report"
                  }
                ]
              },
              "subject": {
                "reference": "Patient/numer-EXM125"
              },
              "date": "2020-09-08T12:15:48-06:00",
              "title": "Care Gap Report for Patient/numer-EXM125",
              "section": [
                {
                  "title": "Cervical Cancer Screening",
                  "focus": {
                    "reference": "MeasureReport/07af8806-1e63-4d03-897e-05806ae80a61"
                  },
                  "entry": [
                    {
                      "reference": "DetectedIssue/576a6a23-12eb-4db2-8979-8377ad5c6cd8"
                    }
                  ]
                }
              ]
            }
          },
          {
            "resource": {
              "resourceType": "MeasureReport",
              "id": "07af8806-1e63-4d03-897e-05806ae80a61",
              "meta": {
                "profile": [
                  "http://hl7.org/fhir/us/davinci-deqm/StructureDefinition/indv-measurereport-deqm"
                ]
              },
              "status": "complete",
              "type": "individual",
              "measure": "Measure/measure-EXM124-9.0.000",
              "subject": {
                "reference": "Patient/numer-EXM125"
              },
              "date": "2020-09-08T12:15:52-06:00",
              "reporter": {
                "reference": "Organization/1553"
              },
              "period": {
                "start": "2020-01-01T00:00:00-07:00",
                "end": "2020-12-31T00:00:00-07:00"
              },
              "improvementNotation": {
                "coding": [
                  {
                    "system": "http://terminology.hl7.org/CodeSystem/measure-improvement-notation",
                    "code": "increase"
                  }
                ]
              },
              "group": [
                {
                  "id": "group-1",
                  "population": [
                    {
                      "code": {
                        "coding": [
                          {
                            "system": "http://terminology.hl7.org/CodeSystem/measure-population",
                            "code": "initial-population",
                            "display": "Initial Population"
                          }
                        ]
                      },
                      "count": 1
                    },
                    {
                      "code": {
                        "coding": [
                          {
                            "system": "http://terminology.hl7.org/CodeSystem/measure-population",
                            "code": "numerator",
                            "display": "Numerator"
                          }
                        ]
                      },
                      "count": 0
                    },
                    {
                      "code": {
                        "coding": [
                          {
                            "system": "http://terminology.hl7.org/CodeSystem/measure-population",
                            "code": "denominator",
                            "display": "Denominator"
                          }
                        ]
                      },
                      "count": 1
                    },
                    {
                      "code": {
                        "coding": [
                          {
                            "system": "http://terminology.hl7.org/CodeSystem/measure-population",
                            "code": "denominator-exclusion",
                            "display": "Denominator Exclusion"
                          }
                        ]
                      },
                      "count": 0
                    }
                  ],
                  "measureScore": {
                    "value": 0.0
                  }
                }
              ],
              "evaluatedResource": [
                {
                  "extension": [
                    {
                      "url": "http://hl7.org/fhir/us/davinci-deqm/StructureDefinition/extension-populationReference",
                      "valueCodeableConcept": {
                        "coding": [
                          {
                            "system": "http://teminology.hl7.org/CodeSystem/measure-population",
                            "code": "initial-population",
                            "display": "initial-population"
                          }
                        ]
                      }
                    }
                  ],
                  "reference": "Patient/numer-EXM125"
                },
                {
                  "extension": [
                    {
                      "url": "http://hl7.org/fhir/us/davinci-deqm/StructureDefinition/extension-populationReference",
                      "valueCodeableConcept": {
                        "coding": [
                          {
                            "system": "http://teminology.hl7.org/CodeSystem/measure-population",
                            "code": "initial-population",
                            "display": "initial-population"
                          }
                        ]
                      }
                    }
                  ],
                  "reference": "Encounter/numer-EXM125-1"
                }
              ]
            }
          },
          {
            "resource": {
              "resourceType": "DetectedIssue",
              "id": "576a6a23-12eb-4db2-8979-8377ad5c6cd8",
              "status": "final",
              "code": {
                "coding": [
                  {
                    "system": "http://hl7.org/fhir/us/davinci-deqm/CodeSystem/detectedissue-category",
                    "code": "care-gap",
                    "display": "Gap in Care Detected"
                  }
                ]
              },
              "patient": {
                "reference": "Patient/numer-EXM125"
              },
              "evidence": [
                {
                  "detail": [
                    {
                      "reference": "MeasureReport/07af8806-1e63-4d03-897e-05806ae80a61"
                    }
                  ]
                }
              ]
            }
          }
        ]
      }
    },
    {
      "name": "Gaps in Care Report - Patient/numer-EXM124",
      "resource": {
        "resourceType": "Bundle",
        "type": "document",
        "timestamp": "2020-09-08T12:15:52.411-06:00",
        "entry": [
          {
            "resource": {
              "resourceType": "Composition",
              "status": "final",
              "type": {
                "coding": [
                  {
                    "system": "http://hl7.org/fhir/us/davinci-deqm/CodeSystem/gaps-doc-type",
                    "code": "gaps-doc",
                    "display": "Gaps in Care Report"
                  }
                ]
              },
              "subject": {
                "reference": "Patient/numer-EXM124"
              },
              "date": "2020-09-08T12:15:52-06:00",
              "title": "Care Gap Report for Patient/numer-EXM124",
              "section": [
                {
                  "title": "Cervical Cancer Screening",
                  "focus": {
                    "reference": "MeasureReport/9bedbaa7-a99e-45b9-9ac9-5bb68954d3e7"
                  },
                  "text": {
                    "status": "generated",
                    "div": "<div xmlns=\"http://www.w3.org/1999/xhtml\"><p>No detected issues.</p></div>"
                  }
                }
              ]
            }
          },
          {
            "resource": {
              "resourceType": "MeasureReport",
              "id": "9bedbaa7-a99e-45b9-9ac9-5bb68954d3e7",
              "meta": {
                "profile": [
                  "http://hl7.org/fhir/us/davinci-deqm/StructureDefinition/indv-measurereport-deqm"
                ]
              },
              "status": "complete",
              "type": "individual",
              "measure": "Measure/measure-EXM124-9.0.000",
              "subject": {
                "reference": "Patient/numer-EXM124"
              },
              "date": "2020-09-08T12:15:55-06:00",
              "reporter": {
                "reference": "Organization/1553"
              },
              "period": {
                "start": "2020-01-01T00:00:00-07:00",
                "end": "2020-12-31T00:00:00-07:00"
              },
              "improvementNotation": {
                "coding": [
                  {
                    "system": "http://terminology.hl7.org/CodeSystem/measure-improvement-notation",
                    "code": "increase"
                  }
                ]
              },
              "group": [
                {
                  "id": "group-1",
                  "population": [
                    {
                      "code": {
                        "coding": [
                          {
                            "system": "http://terminology.hl7.org/CodeSystem/measure-population",
                            "code": "initial-population",
                            "display": "Initial Population"
                          }
                        ]
                      },
                      "count": 1
                    },
                    {
                      "code": {
                        "coding": [
                          {
                            "system": "http://terminology.hl7.org/CodeSystem/measure-population",
                            "code": "numerator",
                            "display": "Numerator"
                          }
                        ]
                      },
                      "count": 1
                    },
                    {
                      "code": {
                        "coding": [
                          {
                            "system": "http://terminology.hl7.org/CodeSystem/measure-population",
                            "code": "denominator",
                            "display": "Denominator"
                          }
                        ]
                      },
                      "count": 1
                    },
                    {
                      "code": {
                        "coding": [
                          {
                            "system": "http://terminology.hl7.org/CodeSystem/measure-population",
                            "code": "denominator-exclusion",
                            "display": "Denominator Exclusion"
                          }
                        ]
                      },
                      "count": 0
                    }
                  ],
                  "measureScore": {
                    "value": 1.0
                  }
                }
              ],
              "evaluatedResource": [
                {
                  "extension": [
                    {
                      "url": "http://hl7.org/fhir/us/davinci-deqm/StructureDefinition/extension-populationReference",
                      "valueCodeableConcept": {
                        "coding": [
                          {
                            "system": "http://teminology.hl7.org/CodeSystem/measure-population",
                            "code": "initial-population",
                            "display": "initial-population"
                          }
                        ]
                      }
                    }
                  ],
                  "reference": "Observation/numer-EXM124-3"
                },
                {
                  "extension": [
                    {
                      "url": "http://hl7.org/fhir/us/davinci-deqm/StructureDefinition/extension-populationReference",
                      "valueCodeableConcept": {
                        "coding": [
                          {
                            "system": "http://teminology.hl7.org/CodeSystem/measure-population",
                            "code": "initial-population",
                            "display": "initial-population"
                          }
                        ]
                      }
                    }
                  ],
                  "reference": "Patient/numer-EXM124"
                },
                {
                  "extension": [
                    {
                      "url": "http://hl7.org/fhir/us/davinci-deqm/StructureDefinition/extension-populationReference",
                      "valueCodeableConcept": {
                        "coding": [
                          {
                            "system": "http://teminology.hl7.org/CodeSystem/measure-population",
                            "code": "initial-population",
                            "display": "initial-population"
                          }
                        ]
                      }
                    }
                  ],
                  "reference": "Encounter/numer-EXM124-2"
                }
              ]
            }
          }
        ]
      }
    }
  ]
}