{
  "resourceType": "Parameters",
  "id": "all-gaps-Group_gaps-subject-group01-report",
  "parameter": [
    {
      "name": "Gaps in Care Report - Patient/numer-EXM130",
      "resource": {
        "resourceType": "Bundle",
        "type": "document",
        "timestamp": "2020-09-08T12:13:40.798-06:00",
        "entry": [
          {
            "resource": {
              "resourceType": "Composition",
              "status": "final",
              "type": {
                "coding": [
                  {
                    "system": "http://hl7.org/fhir/us/davinci-deqm/CodeSystem/gaps-doc-type",
                    "code": "gaps-doc",
                    "display": "Gaps in Care Report"
                  }
                ]
              },
              "subject": {
                "reference": "Patient/numer-EXM130"
              },
              "date": "2020-09-08T12:13:40-06:00",
              "title": "Care Gap Report for Patient/numer-EXM130",
              "section": [
                {
                  "title": "Cervical Cancer Screening",
                  "focus": {
                    "reference": "MeasureReport/fe685561-5c1e-4ab0-9989-4535f85712b3"
                  },
                  "entry": [
                    {
                      "reference": "DetectedIssue/ed59a698-317d-40a8-9388-3d51d83a0581"
                    }
                  ]
                },
                {
                  "title": "Breast Cancer Screening",
                  "focus": {
                    "reference": "MeasureReport/325b885a-1bbd-45e6-9997-06d3a6a2b472"
                  },
                  "entry": [
                    {
                      "reference": "DetectedIssue/db33c2c7-e0b4-402c-851d-331d10e00488"
                    }
                  ]
                },
                {
                  "title": "Colorectal Cancer Screening",
                  "focus": {
                    "reference": "MeasureReport/083b3374-ac91-499c-a2e9-eaf7c2fadc7e"
                  },
                  "text": {
                    "status": "generated",
                    "div": "<div xmlns=\"http://www.w3.org/1999/xhtml\"><p>No detected issues.</p></div>"
                  }
                }
              ]
            }
          },
          {
            "resource": {
              "resourceType": "MeasureReport",
              "id": "fe685561-5c1e-4ab0-9989-4535f85712b3",
              "meta": {
                "profile": [
                  "http://hl7.org/fhir/us/davinci-deqm/StructureDefinition/indv-measurereport-deqm"
                ]
              },
              "contained": [
                {
                  "resourceType": "Bundle",
                  "id": "383f8af5-9f37-468d-a4f7-72083872da29",
                  "type": "collection",
                  "entry": [
                    {
                      "fullUrl": "bf0a3664-f346-4acf-859c-a63e49e98993",
                      "resource": {
                        "resourceType": "List",
                        "id": "bf0a3664-f346-4acf-859c-a63e49e98993",
                        "title": "initial-population",
                        "entry": [
                          {
                            "item": {
                              "reference": "#Patient/numer-EXM130"
                            }
                          },
                          {
                            "item": {
                              "reference": "#Encounter/numer-EXM130-4"
                            }
                          }
                        ]
                      }
                    },
                    {
                      "fullUrl": "Patient/numer-EXM130",
                      "resource": {
                        "resourceType": "Patient",
                        "id": "numer-EXM130",
                        "meta": {
                          "versionId": "1",
                          "lastUpdated": "2020-08-14T07:52:27.231-06:00",
                          "source": "#KXY6uarwR1PvbNC0",
                          "profile": [
                            "http://hl7.org/fhir/us/core/StructureDefinition/us-core-patient"
                          ]
                        },
                        "text": {
                          "status": "generated",
                          "div": "<div xmlns=\"http://www.w3.org/1999/xhtml\"><div class=\"hapiHeaderText\">Don <b>BLITZ </b></div><table class=\"hapiPropertyTable\"><tbody><tr><td>Identifier</td><td>999999992</td></tr><tr><td>Date of birth</td><td><span>01 January 1965</span></td></tr></tbody></table></div>"
                        },
                        "extension": [
                          {
                            "url": "http://hl7.org/fhir/us/core/StructureDefinition/us-core-race",
                            "extension": [
                              {
                                "url": "ombCategory",
                                "valueCoding": {
                                  "system": "urn:oid:2.16.840.1.113883.6.238",
                                  "code": "2028-9",
                                  "display": "Asian"
                                }
                              }
                            ]
                          },
                          {
                            "url": "http://hl7.org/fhir/us/core/StructureDefinition/us-core-ethnicity",
                            "extension": [
                              {
                                "url": "ombCategory",
                                "valueCoding": {
                                  "system": "urn:oid:2.16.840.1.113883.6.238",
                                  "code": "2135-2",
                                  "display": "Hispanic or Latino"
                                }
                              }
                            ]
                          }
                        ],
                        "identifier": [
                          {
                            "use": "usual",
                            "type": {
                              "coding": [
                                {
                                  "system": "http://terminology.hl7.org/CodeSystem/v2-0203",
                                  "code": "MR",
                                  "display": "Medical Record Number"
                                }
                              ]
                            },
                            "system": "http://hospital.smarthealthit.org",
                            "value": "999999992"
                          }
                        ],
                        "name": [
                          {
                            "family": "Blitz",
                            "given": [
                              "Don"
                            ]
                          }
                        ],
                        "gender": "male",
                        "birthDate": "1965-01-01"
                      }
                    },
                    {
                      "fullUrl": "Encounter/numer-EXM130-4",
                      "resource": {
                        "resourceType": "Encounter",
                        "id": "numer-EXM130-4",
                        "meta": {
                          "versionId": "1",
                          "lastUpdated": "2020-08-14T07:52:27.231-06:00",
                          "source": "#KXY6uarwR1PvbNC0",
                          "profile": [
                            "http://hl7.org/fhir/us/core/StructureDefinition/us-core-encounter"
                          ]
                        },
                        "status": "finished",
                        "class": {
                          "system": "http://terminology.hl7.org/CodeSystem/v3-ActCode",
                          "code": "AMB",
                          "display": "ambulatory"
                        },
                        "type": [
                          {
                            "coding": [
                              {
                                "system": "http://www.ama-assn.org/go/cpt",
                                "code": "99201",
                                "display": "Office or other outpatient visit for the evaluation and management of a new patient, which requires these 3 key components: A problem focused history; A problem focused examination; Straightforward medical decision making. Counseling and/or coordination of care with other physicians, other qualified health care professionals, or agencies are provided consistent with the nature of the problem(s) and the patient's and/or family's needs. Usually, the presenting problem(s) are self limited or minor. Typically, 10 minutes are spent face-to-face with the patient and/or family."
                              }
                            ]
                          }
                        ],
                        "subject": {
                          "reference": "Patient/numer-EXM130"
                        },
                        "period": {
                          "start": "2020-05-30T00:00:00.0",
                          "end": "2020-05-31T00:00:00.0"
                        }
                      }
                    }
                  ]
                }
              ],
              "status": "complete",
              "type": "individual",
              "measure": "Measure/measure-EXM124-9.0.000",
              "subject": {
                "reference": "Patient/numer-EXM130"
              },
              "date": "2020-09-08T12:13:43-06:00",
              "reporter": {
                "reference": "Organization/1553"
              },
              "period": {
                "start": "2020-01-01T00:00:00-07:00",
                "end": "2020-12-31T00:00:00-07:00"
              },
              "improvementNotation": {
                "coding": [
                  {
                    "system": "http://terminology.hl7.org/CodeSystem/measure-improvement-notation",
                    "code": "increase"
                  }
                ]
              },
              "group": [
                {
                  "id": "group-1",
                  "population": [
                    {
                      "code": {
                        "coding": [
                          {
                            "system": "http://terminology.hl7.org/CodeSystem/measure-population",
                            "code": "initial-population",
                            "display": "Initial Population"
                          }
                        ]
                      },
                      "count": 0
                    },
                    {
                      "code": {
                        "coding": [
                          {
                            "system": "http://terminology.hl7.org/CodeSystem/measure-population",
                            "code": "numerator",
                            "display": "Numerator"
                          }
                        ]
                      },
                      "count": 0
                    },
                    {
                      "code": {
                        "coding": [
                          {
                            "system": "http://terminology.hl7.org/CodeSystem/measure-population",
                            "code": "denominator",
                            "display": "Denominator"
                          }
                        ]
                      },
                      "count": 0
                    },
                    {
                      "code": {
                        "coding": [
                          {
                            "system": "http://terminology.hl7.org/CodeSystem/measure-population",
                            "code": "denominator-exclusion",
                            "display": "Denominator Exclusion"
                          }
                        ]
                      },
                      "count": 0
                    }
                  ]
                }
              ],
              "evaluatedResource": [
                {
                  "reference": "#383f8af5-9f37-468d-a4f7-72083872da29"
                }
              ]
            }
          },
          {
            "resource": {
              "resourceType": "MeasureReport",
              "id": "325b885a-1bbd-45e6-9997-06d3a6a2b472",
              "meta": {
                "profile": [
                  "http://hl7.org/fhir/us/davinci-deqm/StructureDefinition/indv-measurereport-deqm"
                ]
              },
              "contained": [
                {
                  "resourceType": "Bundle",
                  "id": "91168d69-cdb6-4e94-94f5-c6358a4b30d6",
                  "type": "collection",
                  "entry": [
                    {
                      "fullUrl": "Patient/numer-EXM130",
                      "resource": {
                        "resourceType": "Patient",
                        "id": "numer-EXM130",
                        "meta": {
                          "versionId": "1",
                          "lastUpdated": "2020-08-14T07:52:27.231-06:00",
                          "source": "#KXY6uarwR1PvbNC0",
                          "profile": [
                            "http://hl7.org/fhir/us/core/StructureDefinition/us-core-patient"
                          ]
                        },
                        "text": {
                          "status": "generated",
                          "div": "<div xmlns=\"http://www.w3.org/1999/xhtml\"><div class=\"hapiHeaderText\">Don <b>BLITZ </b></div><table class=\"hapiPropertyTable\"><tbody><tr><td>Identifier</td><td>999999992</td></tr><tr><td>Date of birth</td><td><span>01 January 1965</span></td></tr></tbody></table></div>"
                        },
                        "extension": [
                          {
                            "url": "http://hl7.org/fhir/us/core/StructureDefinition/us-core-race",
                            "extension": [
                              {
                                "url": "ombCategory",
                                "valueCoding": {
                                  "system": "urn:oid:2.16.840.1.113883.6.238",
                                  "code": "2028-9",
                                  "display": "Asian"
                                }
                              }
                            ]
                          },
                          {
                            "url": "http://hl7.org/fhir/us/core/StructureDefinition/us-core-ethnicity",
                            "extension": [
                              {
                                "url": "ombCategory",
                                "valueCoding": {
                                  "system": "urn:oid:2.16.840.1.113883.6.238",
                                  "code": "2135-2",
                                  "display": "Hispanic or Latino"
                                }
                              }
                            ]
                          }
                        ],
                        "identifier": [
                          {
                            "use": "usual",
                            "type": {
                              "coding": [
                                {
                                  "system": "http://terminology.hl7.org/CodeSystem/v2-0203",
                                  "code": "MR",
                                  "display": "Medical Record Number"
                                }
                              ]
                            },
                            "system": "http://hospital.smarthealthit.org",
                            "value": "999999992"
                          }
                        ],
                        "name": [
                          {
                            "family": "Blitz",
                            "given": [
                              "Don"
                            ]
                          }
                        ],
                        "gender": "male",
                        "birthDate": "1965-01-01"
                      }
                    },
                    {
                      "fullUrl": "Encounter/numer-EXM130-4",
                      "resource": {
                        "resourceType": "Encounter",
                        "id": "numer-EXM130-4",
                        "meta": {
                          "versionId": "1",
                          "lastUpdated": "2020-08-14T07:52:27.231-06:00",
                          "source": "#KXY6uarwR1PvbNC0",
                          "profile": [
                            "http://hl7.org/fhir/us/core/StructureDefinition/us-core-encounter"
                          ]
                        },
                        "status": "finished",
                        "class": {
                          "system": "http://terminology.hl7.org/CodeSystem/v3-ActCode",
                          "code": "AMB",
                          "display": "ambulatory"
                        },
                        "type": [
                          {
                            "coding": [
                              {
                                "system": "http://www.ama-assn.org/go/cpt",
                                "code": "99201",
                                "display": "Office or other outpatient visit for the evaluation and management of a new patient, which requires these 3 key components: A problem focused history; A problem focused examination; Straightforward medical decision making. Counseling and/or coordination of care with other physicians, other qualified health care professionals, or agencies are provided consistent with the nature of the problem(s) and the patient's and/or family's needs. Usually, the presenting problem(s) are self limited or minor. Typically, 10 minutes are spent face-to-face with the patient and/or family."
                              }
                            ]
                          }
                        ],
                        "subject": {
                          "reference": "Patient/numer-EXM130"
                        },
                        "period": {
                          "start": "2020-05-30T00:00:00.0",
                          "end": "2020-05-31T00:00:00.0"
                        }
                      }
                    },
                    {
                      "fullUrl": "b0a9ab0b-0e53-4dc7-a06d-4bac6275420c",
                      "resource": {
                        "resourceType": "List",
                        "id": "b0a9ab0b-0e53-4dc7-a06d-4bac6275420c",
                        "title": "initial-population",
                        "entry": [
                          {
                            "item": {
                              "reference": "#Patient/numer-EXM130"
                            }
                          },
                          {
                            "item": {
                              "reference": "#Encounter/numer-EXM130-4"
                            }
                          }
                        ]
                      }
                    }
                  ]
                }
              ],
              "status": "complete",
              "type": "individual",
              "measure": "Measure/measure-EXM125-7.3.000",
              "subject": {
                "reference": "Patient/numer-EXM130"
              },
              "date": "2020-09-08T12:13:45-06:00",
              "reporter": {
                "reference": "Organization/1553"
              },
              "period": {
                "start": "2020-01-01T00:00:00-07:00",
                "end": "2020-12-31T00:00:00-07:00"
              },
              "improvementNotation": {
                "coding": [
                  {
                    "system": "http://terminology.hl7.org/CodeSystem/measure-improvement-notation",
                    "code": "increase"
                  }
                ]
              },
              "group": [
                {
                  "id": "group-1",
                  "population": [
                    {
                      "code": {
                        "coding": [
                          {
                            "system": "http://terminology.hl7.org/CodeSystem/measure-population",
                            "code": "initial-population",
                            "display": "Initial Population"
                          }
                        ]
                      },
                      "count": 0
                    },
                    {
                      "code": {
                        "coding": [
                          {
                            "system": "http://terminology.hl7.org/CodeSystem/measure-population",
                            "code": "numerator",
                            "display": "Numerator"
                          }
                        ]
                      },
                      "count": 0
                    },
                    {
                      "code": {
                        "coding": [
                          {
                            "system": "http://terminology.hl7.org/CodeSystem/measure-population",
                            "code": "denominator",
                            "display": "Denominator"
                          }
                        ]
                      },
                      "count": 0
                    },
                    {
                      "code": {
                        "coding": [
                          {
                            "system": "http://terminology.hl7.org/CodeSystem/measure-population",
                            "code": "denominator-exclusion",
                            "display": "Denominator Exclusion"
                          }
                        ]
                      },
                      "count": 0
                    }
                  ]
                }
              ],
              "evaluatedResource": [
                {
                  "reference": "#91168d69-cdb6-4e94-94f5-c6358a4b30d6"
                }
              ]
            }
          },
          {
            "resource": {
              "resourceType": "MeasureReport",
              "id": "083b3374-ac91-499c-a2e9-eaf7c2fadc7e",
              "meta": {
                "profile": [
                  "http://hl7.org/fhir/us/davinci-deqm/StructureDefinition/indv-measurereport-deqm"
                ]
              },
              "status": "complete",
              "type": "individual",
              "measure": "Measure/measure-EXM130-7.3.000",
              "subject": {
                "reference": "Patient/numer-EXM130"
              },
              "date": "2020-09-08T12:13:50-06:00",
              "reporter": {
                "reference": "Organization/1553"
              },
              "period": {
                "start": "2020-01-01T00:00:00-07:00",
                "end": "2020-12-31T00:00:00-07:00"
              },
              "improvementNotation": {
                "coding": [
                  {
                    "system": "http://terminology.hl7.org/CodeSystem/measure-improvement-notation",
                    "code": "increase"
                  }
                ]
              },
              "group": [
                {
                  "id": "group-1",
                  "population": [
                    {
                      "code": {
                        "coding": [
                          {
                            "system": "http://terminology.hl7.org/CodeSystem/measure-population",
                            "code": "initial-population",
                            "display": "Initial Population"
                          }
                        ]
                      },
                      "count": 1
                    },
                    {
                      "code": {
                        "coding": [
                          {
                            "system": "http://terminology.hl7.org/CodeSystem/measure-population",
                            "code": "numerator",
                            "display": "Numerator"
                          }
                        ]
                      },
                      "count": 1
                    },
                    {
                      "code": {
                        "coding": [
                          {
                            "system": "http://terminology.hl7.org/CodeSystem/measure-population",
                            "code": "denominator",
                            "display": "Denominator"
                          }
                        ]
                      },
                      "count": 1
                    },
                    {
                      "code": {
                        "coding": [
                          {
                            "system": "http://terminology.hl7.org/CodeSystem/measure-population",
                            "code": "denominator-exclusion",
                            "display": "Denominator Exclusion"
                          }
                        ]
                      },
                      "count": 0
                    }
                  ],
                  "measureScore": {
                    "value": 1.0
                  }
                }
              ],
              "evaluatedResource": [
                {
                  "extension": [
                    {
                      "url": "http://hl7.org/fhir/us/davinci-deqm/StructureDefinition/extension-populationReference",
                      "valueCodeableConcept": {
                        "coding": [
                          {
                            "system": "http://teminology.hl7.org/CodeSystem/measure-population",
                            "code": "initial-population",
                            "display": "initial-population"
                          }
                        ]
                      }
                    }
                  ],
                  "reference": "Patient/numer-EXM130"
                },
                {
                  "extension": [
                    {
                      "url": "http://hl7.org/fhir/us/davinci-deqm/StructureDefinition/extension-populationReference",
                      "valueCodeableConcept": {
                        "coding": [
                          {
                            "system": "http://teminology.hl7.org/CodeSystem/measure-population",
                            "code": "initial-population",
                            "display": "initial-population"
                          }
                        ]
                      }
                    }
                  ],
                  "reference": "Encounter/numer-EXM130-4"
                },
                {
                  "extension": [
                    {
                      "url": "http://hl7.org/fhir/us/davinci-deqm/StructureDefinition/extension-populationReference",
                      "valueCodeableConcept": {
                        "coding": [
                          {
                            "system": "http://teminology.hl7.org/CodeSystem/measure-population",
                            "code": "initial-population",
                            "display": "initial-population"
                          }
                        ]
                      }
                    }
                  ],
                  "reference": "Procedure/numer-EXM130-1"
                },
                {
                  "extension": [
                    {
                      "url": "http://hl7.org/fhir/us/davinci-deqm/StructureDefinition/extension-populationReference",
                      "valueCodeableConcept": {
                        "coding": [
                          {
                            "system": "http://teminology.hl7.org/CodeSystem/measure-population",
                            "code": "initial-population",
                            "display": "initial-population"
                          }
                        ]
                      }
                    }
                  ],
                  "reference": "Patient/numer-EXM130"
                },
                {
                  "extension": [
                    {
                      "url": "http://hl7.org/fhir/us/davinci-deqm/StructureDefinition/extension-populationReference",
                      "valueCodeableConcept": {
                        "coding": [
                          {
                            "system": "http://teminology.hl7.org/CodeSystem/measure-population",
                            "code": "initial-population",
                            "display": "initial-population"
                          }
                        ]
                      }
                    }
                  ],
                  "reference": "Encounter/numer-EXM130-4"
                },
                {
                  "extension": [
                    {
                      "url": "http://hl7.org/fhir/us/davinci-deqm/StructureDefinition/extension-populationReference",
                      "valueCodeableConcept": {
                        "coding": [
                          {
                            "system": "http://teminology.hl7.org/CodeSystem/measure-population",
                            "code": "initial-population",
                            "display": "initial-population"
                          }
                        ]
                      }
                    }
                  ],
                  "reference": "Procedure/numer-EXM130-1"
                },
                {
                  "extension": [
                    {
                      "url": "http://hl7.org/fhir/us/davinci-deqm/StructureDefinition/extension-populationReference",
                      "valueCodeableConcept": {
                        "coding": [
                          {
                            "system": "http://teminology.hl7.org/CodeSystem/measure-population",
                            "code": "initial-population",
                            "display": "initial-population"
                          }
                        ]
                      }
                    }
                  ],
                  "reference": "Patient/numer-EXM130"
                },
                {
                  "extension": [
                    {
                      "url": "http://hl7.org/fhir/us/davinci-deqm/StructureDefinition/extension-populationReference",
                      "valueCodeableConcept": {
                        "coding": [
                          {
                            "system": "http://teminology.hl7.org/CodeSystem/measure-population",
                            "code": "initial-population",
                            "display": "initial-population"
                          }
                        ]
                      }
                    }
                  ],
                  "reference": "Encounter/numer-EXM130-4"
                },
                {
                  "extension": [
                    {
                      "url": "http://hl7.org/fhir/us/davinci-deqm/StructureDefinition/extension-populationReference",
                      "valueCodeableConcept": {
                        "coding": [
                          {
                            "system": "http://teminology.hl7.org/CodeSystem/measure-population",
                            "code": "initial-population",
                            "display": "initial-population"
                          }
                        ]
                      }
                    }
                  ],
                  "reference": "Procedure/numer-EXM130-1"
                }
              ]
            }
          },
          {
            "resource": {
              "resourceType": "DetectedIssue",
              "id": "ed59a698-317d-40a8-9388-3d51d83a0581",
              "status": "final",
              "code": {
                "coding": [
                  {
                    "system": "http://hl7.org/fhir/us/davinci-deqm/CodeSystem/detectedissue-category",
                    "code": "care-gap",
                    "display": "Gap in Care Detected"
                  }
                ]
              },
              "patient": {
                "reference": "Patient/numer-EXM130"
              },
              "evidence": [
                {
                  "detail": [
                    {
                      "reference": "MeasureReport/fe685561-5c1e-4ab0-9989-4535f85712b3"
                    }
                  ]
                }
              ]
            }
          },
          {
            "resource": {
              "resourceType": "DetectedIssue",
              "id": "db33c2c7-e0b4-402c-851d-331d10e00488",
              "status": "final",
              "code": {
                "coding": [
                  {
                    "system": "http://hl7.org/fhir/us/davinci-deqm/CodeSystem/detectedissue-category",
                    "code": "care-gap",
                    "display": "Gap in Care Detected"
                  }
                ]
              },
              "patient": {
                "reference": "Patient/numer-EXM130"
              },
              "evidence": [
                {
                  "detail": [
                    {
                      "reference": "MeasureReport/325b885a-1bbd-45e6-9997-06d3a6a2b472"
                    }
                  ]
                }
              ]
            }
          }
        ]
      }
    },
    {
      "name": "Gaps in Care Report - Patient/numer-EXM125",
      "resource": {
        "resourceType": "Bundle",
        "type": "document",
        "timestamp": "2020-09-08T12:13:50.046-06:00",
        "entry": [
          {
            "resource": {
              "resourceType": "Composition",
              "status": "final",
              "type": {
                "coding": [
                  {
                    "system": "http://hl7.org/fhir/us/davinci-deqm/CodeSystem/gaps-doc-type",
                    "code": "gaps-doc",
                    "display": "Gaps in Care Report"
                  }
                ]
              },
              "subject": {
                "reference": "Patient/numer-EXM125"
              },
              "date": "2020-09-08T12:13:50-06:00",
              "title": "Care Gap Report for Patient/numer-EXM125",
              "section": [
                {
                  "title": "Cervical Cancer Screening",
                  "focus": {
                    "reference": "MeasureReport/6639f37a-c396-4fb1-a9a2-d31ce3d798fa"
                  },
                  "entry": [
                    {
                      "reference": "DetectedIssue/51492e71-882f-41d2-84f9-a010b869c909"
                    }
                  ]
                },
                {
                  "title": "Breast Cancer Screening",
                  "focus": {
                    "reference": "MeasureReport/9fb816b9-234d-4c22-98ee-bfecc22888fb"
                  },
                  "text": {
                    "status": "generated",
                    "div": "<div xmlns=\"http://www.w3.org/1999/xhtml\"><p>No detected issues.</p></div>"
                  }
                },
                {
                  "title": "Colorectal Cancer Screening",
                  "focus": {
                    "reference": "MeasureReport/c821643e-5450-44c7-bf64-51d7fffa390c"
                  },
                  "entry": [
                    {
                      "reference": "DetectedIssue/8bb4222d-6136-456d-8358-7dd49dbb05e6"
                    }
                  ]
                }
              ]
            }
          },
          {
            "resource": {
              "resourceType": "MeasureReport",
              "id": "6639f37a-c396-4fb1-a9a2-d31ce3d798fa",
              "meta": {
                "profile": [
                  "http://hl7.org/fhir/us/davinci-deqm/StructureDefinition/indv-measurereport-deqm"
                ]
              },
              "contained": [
                {
                  "resourceType": "Bundle",
                  "id": "496a78d0-ce31-4497-8597-a2a3324be202",
                  "type": "collection",
                  "entry": [
                    {
                      "fullUrl": "43f07547-9328-443f-b7c5-28240a2eab96",
                      "resource": {
                        "resourceType": "List",
                        "id": "43f07547-9328-443f-b7c5-28240a2eab96",
                        "title": "initial-population",
                        "entry": [
                          {
                            "item": {
                              "reference": "#Patient/numer-EXM125"
                            }
                          },
                          {
                            "item": {
                              "reference": "#Encounter/numer-EXM125-1"
                            }
                          }
                        ]
                      }
                    },
                    {
                      "fullUrl": "Patient/numer-EXM125",
                      "resource": {
                        "resourceType": "Patient",
                        "id": "numer-EXM125",
                        "meta": {
                          "versionId": "1",
                          "lastUpdated": "2020-08-14T07:52:13.945-06:00",
                          "source": "#evwlKup1amGKvxyn",
                          "profile": [
                            "http://hl7.org/fhir/us/core/StructureDefinition/us-core-patient"
                          ]
                        },
                        "text": {
                          "status": "generated",
                          "div": "<div xmlns=\"http://www.w3.org/1999/xhtml\"><div class=\"hapiHeaderText\">Karen <b>MCCARREN </b></div><table class=\"hapiPropertyTable\"><tbody><tr><td>Identifier</td><td>999999995</td></tr><tr><td>Date of birth</td><td><span>01 January 1965</span></td></tr></tbody></table></div>"
                        },
                        "extension": [
                          {
                            "url": "http://hl7.org/fhir/us/core/StructureDefinition/us-core-race",
                            "extension": [
                              {
                                "url": "ombCategory",
                                "valueCoding": {
                                  "system": "urn:oid:2.16.840.1.113883.6.238",
                                  "code": "2028-9",
                                  "display": "Asian"
                                }
                              }
                            ]
                          },
                          {
                            "url": "http://hl7.org/fhir/us/core/StructureDefinition/us-core-ethnicity",
                            "extension": [
                              {
                                "url": "ombCategory",
                                "valueCoding": {
                                  "system": "urn:oid:2.16.840.1.113883.6.238",
                                  "code": "2135-2",
                                  "display": "Hispanic or Latino"
                                }
                              }
                            ]
                          }
                        ],
                        "identifier": [
                          {
                            "use": "usual",
                            "type": {
                              "coding": [
                                {
                                  "system": "http://terminology.hl7.org/CodeSystem/v2-0203",
                                  "code": "MR",
                                  "display": "Medical Record Number"
                                }
                              ]
                            },
                            "system": "http://hospital.smarthealthit.org",
                            "value": "999999995"
                          }
                        ],
                        "name": [
                          {
                            "family": "McCarren",
                            "given": [
                              "Karen"
                            ]
                          }
                        ],
                        "gender": "female",
                        "birthDate": "1965-01-01"
                      }
                    },
                    {
                      "fullUrl": "61140821-a2b9-45a5-bae2-1836702bcb9c",
                      "resource": {
                        "resourceType": "List",
                        "id": "61140821-a2b9-45a5-bae2-1836702bcb9c",
                        "title": "denominator",
                        "entry": [
                          {
                            "item": {
                              "reference": "#Patient/numer-EXM125"
                            }
                          },
                          {
                            "item": {
                              "reference": "#Encounter/numer-EXM125-1"
                            }
                          }
                        ]
                      }
                    },
                    {
                      "fullUrl": "Encounter/numer-EXM125-1",
                      "resource": {
                        "resourceType": "Encounter",
                        "id": "numer-EXM125-1",
                        "meta": {
                          "versionId": "1",
                          "lastUpdated": "2020-08-14T07:52:13.945-06:00",
                          "source": "#evwlKup1amGKvxyn",
                          "profile": [
                            "http://hl7.org/fhir/us/core/StructureDefinition/us-core-encounter"
                          ]
                        },
                        "status": "finished",
                        "class": {
                          "system": "http://terminology.hl7.org/CodeSystem/v3-ActCode",
                          "code": "AMB",
                          "display": "ambulatory"
                        },
                        "type": [
                          {
                            "coding": [
                              {
                                "system": "http://www.ama-assn.org/go/cpt",
                                "code": "99201",
                                "display": "Office or other outpatient visit for the evaluation and management of a new patient, which requires these 3 key components: A problem focused history; A problem focused examination; Straightforward medical decision making. Counseling and/or coordination of care with other physicians, other qualified health care professionals, or agencies are provided consistent with the nature of the problem(s) and the patient's and/or family's needs. Usually, the presenting problem(s) are self limited or minor. Typically, 10 minutes are spent face-to-face with the patient and/or family."
                              }
                            ]
                          }
                        ],
                        "subject": {
                          "reference": "Patient/numer-EXM125"
                        },
                        "period": {
                          "start": "2020-05-31T00:00:00-00:00",
                          "end": "2020-05-31T00:00:00-00:00"
                        }
                      }
                    }
                  ]
                }
              ],
              "status": "complete",
              "type": "individual",
              "measure": "Measure/measure-EXM124-9.0.000",
              "subject": {
                "reference": "Patient/numer-EXM125"
              },
              "date": "2020-09-08T12:13:54-06:00",
              "reporter": {
                "reference": "Organization/1553"
              },
              "period": {
                "start": "2020-01-01T00:00:00-07:00",
                "end": "2020-12-31T00:00:00-07:00"
              },
              "improvementNotation": {
                "coding": [
                  {
                    "system": "http://terminology.hl7.org/CodeSystem/measure-improvement-notation",
                    "code": "increase"
                  }
                ]
              },
              "group": [
                {
                  "id": "group-1",
                  "population": [
                    {
                      "code": {
                        "coding": [
                          {
                            "system": "http://terminology.hl7.org/CodeSystem/measure-population",
                            "code": "initial-population",
                            "display": "Initial Population"
                          }
                        ]
                      },
                      "count": 1
                    },
                    {
                      "code": {
                        "coding": [
                          {
                            "system": "http://terminology.hl7.org/CodeSystem/measure-population",
                            "code": "numerator",
                            "display": "Numerator"
                          }
                        ]
                      },
                      "count": 0
                    },
                    {
                      "code": {
                        "coding": [
                          {
                            "system": "http://terminology.hl7.org/CodeSystem/measure-population",
                            "code": "denominator",
                            "display": "Denominator"
                          }
                        ]
                      },
                      "count": 1
                    },
                    {
                      "code": {
                        "coding": [
                          {
                            "system": "http://terminology.hl7.org/CodeSystem/measure-population",
                            "code": "denominator-exclusion",
                            "display": "Denominator Exclusion"
                          }
                        ]
                      },
                      "count": 0
                    }
                  ],
                  "measureScore": {
                    "value": 0.0
                  }
                }
              ],
              "evaluatedResource": [
                {
                  "reference": "#496a78d0-ce31-4497-8597-a2a3324be202"
                }
              ]
            }
          },
          {
            "resource": {
              "resourceType": "MeasureReport",
              "id": "9fb816b9-234d-4c22-98ee-bfecc22888fb",
              "meta": {
                "profile": [
                  "http://hl7.org/fhir/us/davinci-deqm/StructureDefinition/indv-measurereport-deqm"
                ]
              },
              "contained": [
                {
                  "resourceType": "Bundle",
                  "id": "bc1bf2bc-a903-4dcb-a791-b803c81a2118",
                  "type": "collection",
                  "entry": [
                    {
                      "fullUrl": "9de26afe-0d61-41b3-add2-28b73e0c74e7",
                      "resource": {
                        "resourceType": "List",
                        "id": "9de26afe-0d61-41b3-add2-28b73e0c74e7",
                        "title": "initial-population",
                        "entry": [
                          {
                            "item": {
                              "reference": "#Patient/numer-EXM125"
                            }
                          },
                          {
                            "item": {
                              "reference": "#Encounter/numer-EXM125-1"
                            }
                          }
                        ]
                      }
                    },
                    {
                      "fullUrl": "12b0b26d-b4a3-4162-b842-f13465d86d78",
                      "resource": {
                        "resourceType": "List",
                        "id": "12b0b26d-b4a3-4162-b842-f13465d86d78",
                        "title": "denominator",
                        "entry": [
                          {
                            "item": {
                              "reference": "#Patient/numer-EXM125"
                            }
                          },
                          {
                            "item": {
                              "reference": "#Encounter/numer-EXM125-1"
                            }
                          }
                        ]
                      }
                    },
                    {
                      "fullUrl": "DiagnosticReport/numer-EXM125-3",
                      "resource": {
                        "resourceType": "DiagnosticReport",
                        "id": "numer-EXM125-3",
                        "meta": {
                          "versionId": "1",
                          "lastUpdated": "2020-08-14T07:52:13.945-06:00",
                          "source": "#evwlKup1amGKvxyn",
                          "profile": [
                            "http://hl7.org/fhir/us/core/StructureDefinition/us-core-diagnosticreport-note"
                          ]
                        },
                        "text": {
                          "status": "generated",
                          "div": "<div xmlns=\"http://www.w3.org/1999/xhtml\"><div class=\"hapiHeaderText\"> MG Breast Diagnostic Limited Views </div><table class=\"hapiPropertyTable\"><tbody><tr><td>Status</td><td>FINAL</td></tr></tbody></table></div>"
                        },
                        "status": "final",
                        "code": {
                          "coding": [
                            {
                              "system": "http://loinc.org",
                              "code": "24604-1",
                              "display": "MG Breast Diagnostic Limited Views"
                            }
                          ]
                        },
                        "subject": {
                          "reference": "Patient/numer-EXM125"
                        },
                        "effectivePeriod": {
                          "start": "2018-05-30T00:00:00-00:00",
                          "end": "2018-11-30T00:00:00-00:00"
                        }
                      }
                    },
                    {
                      "fullUrl": "1dfa03c5-2354-4737-94e2-528c9a5c9194",
                      "resource": {
                        "resourceType": "List",
                        "id": "1dfa03c5-2354-4737-94e2-528c9a5c9194",
                        "title": "numerator",
                        "entry": [
                          {
                            "item": {
                              "reference": "#DiagnosticReport/numer-EXM125-3"
                            }
                          }
                        ]
                      }
                    },
                    {
                      "fullUrl": "Patient/numer-EXM125",
                      "resource": {
                        "resourceType": "Patient",
                        "id": "numer-EXM125",
                        "meta": {
                          "versionId": "1",
                          "lastUpdated": "2020-08-14T07:52:13.945-06:00",
                          "source": "#evwlKup1amGKvxyn",
                          "profile": [
                            "http://hl7.org/fhir/us/core/StructureDefinition/us-core-patient"
                          ]
                        },
                        "text": {
                          "status": "generated",
                          "div": "<div xmlns=\"http://www.w3.org/1999/xhtml\"><div class=\"hapiHeaderText\">Karen <b>MCCARREN </b></div><table class=\"hapiPropertyTable\"><tbody><tr><td>Identifier</td><td>999999995</td></tr><tr><td>Date of birth</td><td><span>01 January 1965</span></td></tr></tbody></table></div>"
                        },
                        "extension": [
                          {
                            "url": "http://hl7.org/fhir/us/core/StructureDefinition/us-core-race",
                            "extension": [
                              {
                                "url": "ombCategory",
                                "valueCoding": {
                                  "system": "urn:oid:2.16.840.1.113883.6.238",
                                  "code": "2028-9",
                                  "display": "Asian"
                                }
                              }
                            ]
                          },
                          {
                            "url": "http://hl7.org/fhir/us/core/StructureDefinition/us-core-ethnicity",
                            "extension": [
                              {
                                "url": "ombCategory",
                                "valueCoding": {
                                  "system": "urn:oid:2.16.840.1.113883.6.238",
                                  "code": "2135-2",
                                  "display": "Hispanic or Latino"
                                }
                              }
                            ]
                          }
                        ],
                        "identifier": [
                          {
                            "use": "usual",
                            "type": {
                              "coding": [
                                {
                                  "system": "http://terminology.hl7.org/CodeSystem/v2-0203",
                                  "code": "MR",
                                  "display": "Medical Record Number"
                                }
                              ]
                            },
                            "system": "http://hospital.smarthealthit.org",
                            "value": "999999995"
                          }
                        ],
                        "name": [
                          {
                            "family": "McCarren",
                            "given": [
                              "Karen"
                            ]
                          }
                        ],
                        "gender": "female",
                        "birthDate": "1965-01-01"
                      }
                    },
                    {
                      "fullUrl": "Encounter/numer-EXM125-1",
                      "resource": {
                        "resourceType": "Encounter",
                        "id": "numer-EXM125-1",
                        "meta": {
                          "versionId": "1",
                          "lastUpdated": "2020-08-14T07:52:13.945-06:00",
                          "source": "#evwlKup1amGKvxyn",
                          "profile": [
                            "http://hl7.org/fhir/us/core/StructureDefinition/us-core-encounter"
                          ]
                        },
                        "status": "finished",
                        "class": {
                          "system": "http://terminology.hl7.org/CodeSystem/v3-ActCode",
                          "code": "AMB",
                          "display": "ambulatory"
                        },
                        "type": [
                          {
                            "coding": [
                              {
                                "system": "http://www.ama-assn.org/go/cpt",
                                "code": "99201",
                                "display": "Office or other outpatient visit for the evaluation and management of a new patient, which requires these 3 key components: A problem focused history; A problem focused examination; Straightforward medical decision making. Counseling and/or coordination of care with other physicians, other qualified health care professionals, or agencies are provided consistent with the nature of the problem(s) and the patient's and/or family's needs. Usually, the presenting problem(s) are self limited or minor. Typically, 10 minutes are spent face-to-face with the patient and/or family."
                              }
                            ]
                          }
                        ],
                        "subject": {
                          "reference": "Patient/numer-EXM125"
                        },
                        "period": {
                          "start": "2020-05-31T00:00:00-00:00",
                          "end": "2020-05-31T00:00:00-00:00"
                        }
                      }
                    }
                  ]
                }
              ],
              "status": "complete",
              "type": "individual",
              "measure": "Measure/measure-EXM125-7.3.000",
              "subject": {
                "reference": "Patient/numer-EXM125"
              },
              "date": "2020-09-08T12:13:57-06:00",
              "reporter": {
                "reference": "Organization/1553"
              },
              "period": {
                "start": "2020-01-01T00:00:00-07:00",
                "end": "2020-12-31T00:00:00-07:00"
              },
              "improvementNotation": {
                "coding": [
                  {
                    "system": "http://terminology.hl7.org/CodeSystem/measure-improvement-notation",
                    "code": "increase"
                  }
                ]
              },
              "group": [
                {
                  "id": "group-1",
                  "population": [
                    {
                      "code": {
                        "coding": [
                          {
                            "system": "http://terminology.hl7.org/CodeSystem/measure-population",
                            "code": "initial-population",
                            "display": "Initial Population"
                          }
                        ]
                      },
                      "count": 1
                    },
                    {
                      "code": {
                        "coding": [
                          {
                            "system": "http://terminology.hl7.org/CodeSystem/measure-population",
                            "code": "numerator",
                            "display": "Numerator"
                          }
                        ]
                      },
                      "count": 1
                    },
                    {
                      "code": {
                        "coding": [
                          {
                            "system": "http://terminology.hl7.org/CodeSystem/measure-population",
                            "code": "denominator",
                            "display": "Denominator"
                          }
                        ]
                      },
                      "count": 1
                    },
                    {
                      "code": {
                        "coding": [
                          {
                            "system": "http://terminology.hl7.org/CodeSystem/measure-population",
                            "code": "denominator-exclusion",
                            "display": "Denominator Exclusion"
                          }
                        ]
                      },
                      "count": 0
                    }
                  ],
                  "measureScore": {
                    "value": 1.0
                  }
                }
              ],
              "evaluatedResource": [
                {
                  "reference": "#bc1bf2bc-a903-4dcb-a791-b803c81a2118"
                }
              ]
            }
          },
          {
            "resource": {
              "resourceType": "MeasureReport",
              "id": "c821643e-5450-44c7-bf64-51d7fffa390c",
              "meta": {
                "profile": [
                  "http://hl7.org/fhir/us/davinci-deqm/StructureDefinition/indv-measurereport-deqm"
                ]
              },
              "status": "complete",
              "type": "individual",
              "measure": "Measure/measure-EXM130-7.3.000",
              "subject": {
                "reference": "Patient/numer-EXM125"
              },
              "date": "2020-09-08T12:14:00-06:00",
              "reporter": {
                "reference": "Organization/1553"
              },
              "period": {
                "start": "2020-01-01T00:00:00-07:00",
                "end": "2020-12-31T00:00:00-07:00"
              },
              "improvementNotation": {
                "coding": [
                  {
                    "system": "http://terminology.hl7.org/CodeSystem/measure-improvement-notation",
                    "code": "increase"
                  }
                ]
              },
              "group": [
                {
                  "id": "group-1",
                  "population": [
                    {
                      "code": {
                        "coding": [
                          {
                            "system": "http://terminology.hl7.org/CodeSystem/measure-population",
                            "code": "initial-population",
                            "display": "Initial Population"
                          }
                        ]
                      },
                      "count": 1
                    },
                    {
                      "code": {
                        "coding": [
                          {
                            "system": "http://terminology.hl7.org/CodeSystem/measure-population",
                            "code": "numerator",
                            "display": "Numerator"
                          }
                        ]
                      },
                      "count": 0
                    },
                    {
                      "code": {
                        "coding": [
                          {
                            "system": "http://terminology.hl7.org/CodeSystem/measure-population",
                            "code": "denominator",
                            "display": "Denominator"
                          }
                        ]
                      },
                      "count": 1
                    },
                    {
                      "code": {
                        "coding": [
                          {
                            "system": "http://terminology.hl7.org/CodeSystem/measure-population",
                            "code": "denominator-exclusion",
                            "display": "Denominator Exclusion"
                          }
                        ]
                      },
                      "count": 0
                    }
                  ],
                  "measureScore": {
                    "value": 0.0
                  }
                }
              ],
              "evaluatedResource": [
                {
                  "extension": [
                    {
                      "url": "http://hl7.org/fhir/us/davinci-deqm/StructureDefinition/extension-populationReference",
                      "valueCodeableConcept": {
                        "coding": [
                          {
                            "system": "http://teminology.hl7.org/CodeSystem/measure-population",
                            "code": "initial-population",
                            "display": "initial-population"
                          }
                        ]
                      }
                    }
                  ],
                  "reference": "Patient/numer-EXM125"
                },
                {
                  "extension": [
                    {
                      "url": "http://hl7.org/fhir/us/davinci-deqm/StructureDefinition/extension-populationReference",
                      "valueCodeableConcept": {
                        "coding": [
                          {
                            "system": "http://teminology.hl7.org/CodeSystem/measure-population",
                            "code": "initial-population",
                            "display": "initial-population"
                          }
                        ]
                      }
                    }
                  ],
                  "reference": "Encounter/numer-EXM125-1"
                },
                {
                  "extension": [
                    {
                      "url": "http://hl7.org/fhir/us/davinci-deqm/StructureDefinition/extension-populationReference",
                      "valueCodeableConcept": {
                        "coding": [
                          {
                            "system": "http://teminology.hl7.org/CodeSystem/measure-population",
                            "code": "initial-population",
                            "display": "initial-population"
                          }
                        ]
                      }
                    }
                  ],
                  "reference": "Patient/numer-EXM125"
                },
                {
                  "extension": [
                    {
                      "url": "http://hl7.org/fhir/us/davinci-deqm/StructureDefinition/extension-populationReference",
                      "valueCodeableConcept": {
                        "coding": [
                          {
                            "system": "http://teminology.hl7.org/CodeSystem/measure-population",
                            "code": "initial-population",
                            "display": "initial-population"
                          }
                        ]
                      }
                    }
                  ],
                  "reference": "Encounter/numer-EXM125-1"
                },
                {
                  "extension": [
                    {
                      "url": "http://hl7.org/fhir/us/davinci-deqm/StructureDefinition/extension-populationReference",
                      "valueCodeableConcept": {
                        "coding": [
                          {
                            "system": "http://teminology.hl7.org/CodeSystem/measure-population",
                            "code": "initial-population",
                            "display": "initial-population"
                          }
                        ]
                      }
                    }
                  ],
                  "reference": "Patient/numer-EXM125"
                },
                {
                  "extension": [
                    {
                      "url": "http://hl7.org/fhir/us/davinci-deqm/StructureDefinition/extension-populationReference",
                      "valueCodeableConcept": {
                        "coding": [
                          {
                            "system": "http://teminology.hl7.org/CodeSystem/measure-population",
                            "code": "initial-population",
                            "display": "initial-population"
                          }
                        ]
                      }
                    }
                  ],
                  "reference": "Encounter/numer-EXM125-1"
                }
              ]
            }
          },
          {
            "resource": {
              "resourceType": "DetectedIssue",
              "id": "51492e71-882f-41d2-84f9-a010b869c909",
              "status": "final",
              "code": {
                "coding": [
                  {
                    "system": "http://hl7.org/fhir/us/davinci-deqm/CodeSystem/detectedissue-category",
                    "code": "care-gap",
                    "display": "Gap in Care Detected"
                  }
                ]
              },
              "patient": {
                "reference": "Patient/numer-EXM125"
              },
              "evidence": [
                {
                  "detail": [
                    {
                      "reference": "MeasureReport/6639f37a-c396-4fb1-a9a2-d31ce3d798fa"
                    }
                  ]
                }
              ]
            }
          },
          {
            "resource": {
              "resourceType": "DetectedIssue",
              "id": "8bb4222d-6136-456d-8358-7dd49dbb05e6",
              "status": "final",
              "code": {
                "coding": [
                  {
                    "system": "http://hl7.org/fhir/us/davinci-deqm/CodeSystem/detectedissue-category",
                    "code": "care-gap",
                    "display": "Gap in Care Detected"
                  }
                ]
              },
              "patient": {
                "reference": "Patient/numer-EXM125"
              },
              "evidence": [
                {
                  "detail": [
                    {
                      "reference": "MeasureReport/c821643e-5450-44c7-bf64-51d7fffa390c"
                    }
                  ]
                }
              ]
            }
          }
        ]
      }
    },
    {
      "name": "Gaps in Care Report - Patient/numer-EXM124",
      "resource": {
        "resourceType": "Bundle",
        "type": "document",
        "timestamp": "2020-09-08T12:14:00.557-06:00",
        "entry": [
          {
            "resource": {
              "resourceType": "Composition",
              "status": "final",
              "type": {
                "coding": [
                  {
                    "system": "http://hl7.org/fhir/us/davinci-deqm/CodeSystem/gaps-doc-type",
                    "code": "gaps-doc",
                    "display": "Gaps in Care Report"
                  }
                ]
              },
              "subject": {
                "reference": "Patient/numer-EXM124"
              },
              "date": "2020-09-08T12:14:00-06:00",
              "title": "Care Gap Report for Patient/numer-EXM124",
              "section": [
                {
                  "title": "Cervical Cancer Screening",
                  "focus": {
                    "reference": "MeasureReport/097b4b85-1945-440f-b27a-1404d0bb581e"
                  },
                  "text": {
                    "status": "generated",
                    "div": "<div xmlns=\"http://www.w3.org/1999/xhtml\"><p>No detected issues.</p></div>"
                  }
                },
                {
                  "title": "Breast Cancer Screening",
                  "focus": {
                    "reference": "MeasureReport/c5feb307-6d95-4384-b620-a5a641cf3588"
                  },
                  "entry": [
                    {
                      "reference": "DetectedIssue/b35696d8-360f-44a8-a8b3-df1f6a5bc11d"
                    }
                  ]
                },
                {
                  "title": "Colorectal Cancer Screening",
                  "focus": {
                    "reference": "MeasureReport/0a706a71-5fdc-4b54-8180-88901feee284"
                  },
                  "entry": [
                    {
                      "reference": "DetectedIssue/bc1f408c-cf1b-424a-85cb-3392922ab605"
                    }
                  ]
                }
              ]
            }
          },
          {
            "resource": {
              "resourceType": "MeasureReport",
              "id": "097b4b85-1945-440f-b27a-1404d0bb581e",
              "meta": {
                "profile": [
                  "http://hl7.org/fhir/us/davinci-deqm/StructureDefinition/indv-measurereport-deqm"
                ]
              },
              "contained": [
                {
                  "resourceType": "Bundle",
                  "id": "86f706fa-4283-4022-873a-500a1ebad097",
                  "type": "collection",
                  "entry": [
                    {
                      "fullUrl": "d94fbf10-9bdd-48b8-92b0-1cba8afe4bf7",
                      "resource": {
                        "resourceType": "List",
                        "id": "d94fbf10-9bdd-48b8-92b0-1cba8afe4bf7",
                        "title": "denominator",
                        "entry": [
                          {
                            "item": {
                              "reference": "#Patient/numer-EXM124"
                            }
                          },
                          {
                            "item": {
                              "reference": "#Encounter/numer-EXM124-2"
                            }
                          }
                        ]
                      }
                    },
                    {
                      "fullUrl": "Observation/numer-EXM124-3",
                      "resource": {
                        "resourceType": "Observation",
                        "id": "numer-EXM124-3",
                        "meta": {
                          "versionId": "1",
                          "lastUpdated": "2020-08-14T07:51:59.454-06:00",
                          "source": "#dDH5V4Doha2IilZy",
                          "profile": [
                            "http://hl7.org/fhir/observation"
                          ]
                        },
                        "status": "final",
                        "code": {
                          "coding": [
                            {
                              "system": "http://loinc.org",
                              "code": "10524-7",
                              "display": "Microscopic observation [Identifier] in Cervix by Cyto stain"
                            }
                          ]
                        },
                        "subject": {
                          "reference": "Patient/numer-EXM124"
                        },
                        "effectiveDateTime": "2020-11-01T00:00:00",
                        "valueBoolean": true
                      }
                    },
                    {
                      "fullUrl": "eaeb958b-6df7-41ae-9891-dad268281d11",
                      "resource": {
                        "resourceType": "List",
                        "id": "eaeb958b-6df7-41ae-9891-dad268281d11",
                        "title": "initial-population",
                        "entry": [
                          {
                            "item": {
                              "reference": "#Patient/numer-EXM124"
                            }
                          },
                          {
                            "item": {
                              "reference": "#Encounter/numer-EXM124-2"
                            }
                          }
                        ]
                      }
                    },
                    {
                      "fullUrl": "81d1af06-4eca-4a34-b20e-d4143a55caa1",
                      "resource": {
                        "resourceType": "List",
                        "id": "81d1af06-4eca-4a34-b20e-d4143a55caa1",
                        "title": "numerator",
                        "entry": [
                          {
                            "item": {
                              "reference": "#Observation/numer-EXM124-3"
                            }
                          }
                        ]
                      }
                    },
                    {
                      "fullUrl": "Patient/numer-EXM124",
                      "resource": {
                        "resourceType": "Patient",
                        "id": "numer-EXM124",
                        "meta": {
                          "versionId": "1",
                          "lastUpdated": "2020-08-14T07:51:59.454-06:00",
                          "source": "#dDH5V4Doha2IilZy",
                          "profile": [
                            "http://hl7.org/fhir/us/core/StructureDefinition/us-core-patient"
                          ]
                        },
                        "text": {
                          "status": "generated",
                          "div": "<div xmlns=\"http://www.w3.org/1999/xhtml\"><div class=\"hapiHeaderText\">Melanie <b>BRIGAND </b></div><table class=\"hapiPropertyTable\"><tbody><tr><td>Identifier</td><td>999999995</td></tr><tr><td>Date of birth</td><td><span>01 January 1995</span></td></tr></tbody></table></div>"
                        },
                        "extension": [
                          {
                            "url": "http://hl7.org/fhir/us/core/StructureDefinition/us-core-race",
                            "extension": [
                              {
                                "url": "ombCategory",
                                "valueCoding": {
                                  "system": "urn:oid:2.16.840.1.113883.6.238",
                                  "code": "2028-9",
                                  "display": "Asian"
                                }
                              }
                            ]
                          },
                          {
                            "url": "http://hl7.org/fhir/us/core/StructureDefinition/us-core-ethnicity",
                            "extension": [
                              {
                                "url": "ombCategory",
                                "valueCoding": {
                                  "system": "urn:oid:2.16.840.1.113883.6.238",
                                  "code": "2135-2",
                                  "display": "Hispanic or Latino"
                                }
                              }
                            ]
                          }
                        ],
                        "identifier": [
                          {
                            "use": "usual",
                            "type": {
                              "coding": [
                                {
                                  "system": "http://terminology.hl7.org/CodeSystem/v2-0203",
                                  "code": "MR",
                                  "display": "Medical Record Number"
                                }
                              ]
                            },
                            "system": "http://hospital.smarthealthit.org",
                            "value": "999999995"
                          }
                        ],
                        "name": [
                          {
                            "family": "Brigand",
                            "given": [
                              "Melanie"
                            ]
                          }
                        ],
                        "gender": "female",
                        "birthDate": "1995-01-01"
                      }
                    },
                    {
                      "fullUrl": "Encounter/numer-EXM124-2",
                      "resource": {
                        "resourceType": "Encounter",
                        "id": "numer-EXM124-2",
                        "meta": {
                          "versionId": "1",
                          "lastUpdated": "2020-08-14T07:51:59.454-06:00",
                          "source": "#dDH5V4Doha2IilZy",
                          "profile": [
                            "http://hl7.org/fhir/us/core/StructureDefinition/us-core-encounter"
                          ]
                        },
                        "status": "finished",
                        "class": {
                          "system": "http://terminology.hl7.org/CodeSystem/v3-ActCode",
                          "code": "AMB",
                          "display": "ambulatory"
                        },
                        "type": [
                          {
                            "coding": [
                              {
                                "system": "http://www.ama-assn.org/go/cpt",
                                "code": "99201",
                                "display": "Office or other outpatient visit for the evaluation and management of a new patient, which requires these 3 key components: A problem focused history; A problem focused examination; Straightforward medical decision making. Counseling and/or coordination of care with other physicians, other qualified health care professionals, or agencies are provided consistent with the nature of the problem(s) and the patient's and/or family's needs. Usually, the presenting problem(s) are self limited or minor. Typically, 10 minutes are spent face-to-face with the patient and/or family."
                              }
                            ]
                          }
                        ],
                        "subject": {
                          "reference": "Patient/numer-EXM124"
                        },
                        "period": {
                          "start": "2020-01-01T00:00:00.0",
                          "end": "2020-01-02T00:00:00.0"
                        }
                      }
                    }
                  ]
                }
              ],
              "status": "complete",
              "type": "individual",
              "measure": "Measure/measure-EXM124-9.0.000",
              "subject": {
                "reference": "Patient/numer-EXM124"
              },
              "date": "2020-09-08T12:14:06-06:00",
              "reporter": {
                "reference": "Organization/1553"
              },
              "period": {
                "start": "2020-01-01T00:00:00-07:00",
                "end": "2020-12-31T00:00:00-07:00"
              },
              "improvementNotation": {
                "coding": [
                  {
                    "system": "http://terminology.hl7.org/CodeSystem/measure-improvement-notation",
                    "code": "increase"
                  }
                ]
              },
              "group": [
                {
                  "id": "group-1",
                  "population": [
                    {
                      "code": {
                        "coding": [
                          {
                            "system": "http://terminology.hl7.org/CodeSystem/measure-population",
                            "code": "initial-population",
                            "display": "Initial Population"
                          }
                        ]
                      },
                      "count": 1
                    },
                    {
                      "code": {
                        "coding": [
                          {
                            "system": "http://terminology.hl7.org/CodeSystem/measure-population",
                            "code": "numerator",
                            "display": "Numerator"
                          }
                        ]
                      },
                      "count": 1
                    },
                    {
                      "code": {
                        "coding": [
                          {
                            "system": "http://terminology.hl7.org/CodeSystem/measure-population",
                            "code": "denominator",
                            "display": "Denominator"
                          }
                        ]
                      },
                      "count": 1
                    },
                    {
                      "code": {
                        "coding": [
                          {
                            "system": "http://terminology.hl7.org/CodeSystem/measure-population",
                            "code": "denominator-exclusion",
                            "display": "Denominator Exclusion"
                          }
                        ]
                      },
                      "count": 0
                    }
                  ],
                  "measureScore": {
                    "value": 1.0
                  }
                }
              ],
              "evaluatedResource": [
                {
                  "reference": "#86f706fa-4283-4022-873a-500a1ebad097"
                }
              ]
            }
          },
          {
            "resource": {
              "resourceType": "MeasureReport",
              "id": "c5feb307-6d95-4384-b620-a5a641cf3588",
              "meta": {
                "profile": [
                  "http://hl7.org/fhir/us/davinci-deqm/StructureDefinition/indv-measurereport-deqm"
                ]
              },
              "contained": [
                {
                  "resourceType": "Bundle",
                  "id": "a20666ef-01a3-4691-b5d6-e477f44202b2",
                  "type": "collection",
                  "entry": [
                    {
                      "fullUrl": "c440e0d4-f58a-4684-88c4-bbe1ee8dba9a",
                      "resource": {
                        "resourceType": "List",
                        "id": "c440e0d4-f58a-4684-88c4-bbe1ee8dba9a",
                        "title": "initial-population",
                        "entry": [
                          {
                            "item": {
                              "reference": "#Patient/numer-EXM124"
                            }
                          },
                          {
                            "item": {
                              "reference": "#Encounter/numer-EXM124-2"
                            }
                          }
                        ]
                      }
                    },
                    {
                      "fullUrl": "Patient/numer-EXM124",
                      "resource": {
                        "resourceType": "Patient",
                        "id": "numer-EXM124",
                        "meta": {
                          "versionId": "1",
                          "lastUpdated": "2020-08-14T07:51:59.454-06:00",
                          "source": "#dDH5V4Doha2IilZy",
                          "profile": [
                            "http://hl7.org/fhir/us/core/StructureDefinition/us-core-patient"
                          ]
                        },
                        "text": {
                          "status": "generated",
                          "div": "<div xmlns=\"http://www.w3.org/1999/xhtml\"><div class=\"hapiHeaderText\">Melanie <b>BRIGAND </b></div><table class=\"hapiPropertyTable\"><tbody><tr><td>Identifier</td><td>999999995</td></tr><tr><td>Date of birth</td><td><span>01 January 1995</span></td></tr></tbody></table></div>"
                        },
                        "extension": [
                          {
                            "url": "http://hl7.org/fhir/us/core/StructureDefinition/us-core-race",
                            "extension": [
                              {
                                "url": "ombCategory",
                                "valueCoding": {
                                  "system": "urn:oid:2.16.840.1.113883.6.238",
                                  "code": "2028-9",
                                  "display": "Asian"
                                }
                              }
                            ]
                          },
                          {
                            "url": "http://hl7.org/fhir/us/core/StructureDefinition/us-core-ethnicity",
                            "extension": [
                              {
                                "url": "ombCategory",
                                "valueCoding": {
                                  "system": "urn:oid:2.16.840.1.113883.6.238",
                                  "code": "2135-2",
                                  "display": "Hispanic or Latino"
                                }
                              }
                            ]
                          }
                        ],
                        "identifier": [
                          {
                            "use": "usual",
                            "type": {
                              "coding": [
                                {
                                  "system": "http://terminology.hl7.org/CodeSystem/v2-0203",
                                  "code": "MR",
                                  "display": "Medical Record Number"
                                }
                              ]
                            },
                            "system": "http://hospital.smarthealthit.org",
                            "value": "999999995"
                          }
                        ],
                        "name": [
                          {
                            "family": "Brigand",
                            "given": [
                              "Melanie"
                            ]
                          }
                        ],
                        "gender": "female",
                        "birthDate": "1995-01-01"
                      }
                    },
                    {
                      "fullUrl": "Encounter/numer-EXM124-2",
                      "resource": {
                        "resourceType": "Encounter",
                        "id": "numer-EXM124-2",
                        "meta": {
                          "versionId": "1",
                          "lastUpdated": "2020-08-14T07:51:59.454-06:00",
                          "source": "#dDH5V4Doha2IilZy",
                          "profile": [
                            "http://hl7.org/fhir/us/core/StructureDefinition/us-core-encounter"
                          ]
                        },
                        "status": "finished",
                        "class": {
                          "system": "http://terminology.hl7.org/CodeSystem/v3-ActCode",
                          "code": "AMB",
                          "display": "ambulatory"
                        },
                        "type": [
                          {
                            "coding": [
                              {
                                "system": "http://www.ama-assn.org/go/cpt",
                                "code": "99201",
                                "display": "Office or other outpatient visit for the evaluation and management of a new patient, which requires these 3 key components: A problem focused history; A problem focused examination; Straightforward medical decision making. Counseling and/or coordination of care with other physicians, other qualified health care professionals, or agencies are provided consistent with the nature of the problem(s) and the patient's and/or family's needs. Usually, the presenting problem(s) are self limited or minor. Typically, 10 minutes are spent face-to-face with the patient and/or family."
                              }
                            ]
                          }
                        ],
                        "subject": {
                          "reference": "Patient/numer-EXM124"
                        },
                        "period": {
                          "start": "2020-01-01T00:00:00.0",
                          "end": "2020-01-02T00:00:00.0"
                        }
                      }
                    }
                  ]
                }
              ],
              "status": "complete",
              "type": "individual",
              "measure": "Measure/measure-EXM125-7.3.000",
              "subject": {
                "reference": "Patient/numer-EXM124"
              },
              "date": "2020-09-08T12:14:08-06:00",
              "reporter": {
                "reference": "Organization/1553"
              },
              "period": {
                "start": "2020-01-01T00:00:00-07:00",
                "end": "2020-12-31T00:00:00-07:00"
              },
              "improvementNotation": {
                "coding": [
                  {
                    "system": "http://terminology.hl7.org/CodeSystem/measure-improvement-notation",
                    "code": "increase"
                  }
                ]
              },
              "group": [
                {
                  "id": "group-1",
                  "population": [
                    {
                      "code": {
                        "coding": [
                          {
                            "system": "http://terminology.hl7.org/CodeSystem/measure-population",
                            "code": "initial-population",
                            "display": "Initial Population"
                          }
                        ]
                      },
                      "count": 0
                    },
                    {
                      "code": {
                        "coding": [
                          {
                            "system": "http://terminology.hl7.org/CodeSystem/measure-population",
                            "code": "numerator",
                            "display": "Numerator"
                          }
                        ]
                      },
                      "count": 0
                    },
                    {
                      "code": {
                        "coding": [
                          {
                            "system": "http://terminology.hl7.org/CodeSystem/measure-population",
                            "code": "denominator",
                            "display": "Denominator"
                          }
                        ]
                      },
                      "count": 0
                    },
                    {
                      "code": {
                        "coding": [
                          {
                            "system": "http://terminology.hl7.org/CodeSystem/measure-population",
                            "code": "denominator-exclusion",
                            "display": "Denominator Exclusion"
                          }
                        ]
                      },
                      "count": 0
                    }
                  ]
                }
              ],
              "evaluatedResource": [
                {
                  "reference": "#a20666ef-01a3-4691-b5d6-e477f44202b2"
                }
              ]
            }
          },
          {
            "resource": {
              "resourceType": "MeasureReport",
              "id": "0a706a71-5fdc-4b54-8180-88901feee284",
              "meta": {
                "profile": [
                  "http://hl7.org/fhir/us/davinci-deqm/StructureDefinition/indv-measurereport-deqm"
                ]
              },
              "status": "complete",
              "type": "individual",
              "measure": "Measure/measure-EXM130-7.3.000",
              "subject": {
                "reference": "Patient/numer-EXM124"
              },
              "date": "2020-09-08T12:14:10-06:00",
              "reporter": {
                "reference": "Organization/1553"
              },
              "period": {
                "start": "2020-01-01T00:00:00-07:00",
                "end": "2020-12-31T00:00:00-07:00"
              },
              "improvementNotation": {
                "coding": [
                  {
                    "system": "http://terminology.hl7.org/CodeSystem/measure-improvement-notation",
                    "code": "increase"
                  }
                ]
              },
              "group": [
                {
                  "id": "group-1",
                  "population": [
                    {
                      "code": {
                        "coding": [
                          {
                            "system": "http://terminology.hl7.org/CodeSystem/measure-population",
                            "code": "initial-population",
                            "display": "Initial Population"
                          }
                        ]
                      },
                      "count": 0
                    },
                    {
                      "code": {
                        "coding": [
                          {
                            "system": "http://terminology.hl7.org/CodeSystem/measure-population",
                            "code": "numerator",
                            "display": "Numerator"
                          }
                        ]
                      },
                      "count": 0
                    },
                    {
                      "code": {
                        "coding": [
                          {
                            "system": "http://terminology.hl7.org/CodeSystem/measure-population",
                            "code": "denominator",
                            "display": "Denominator"
                          }
                        ]
                      },
                      "count": 0
                    },
                    {
                      "code": {
                        "coding": [
                          {
                            "system": "http://terminology.hl7.org/CodeSystem/measure-population",
                            "code": "denominator-exclusion",
                            "display": "Denominator Exclusion"
                          }
                        ]
                      },
                      "count": 0
                    }
                  ]
                }
              ],
              "evaluatedResource": [
                {
                  "extension": [
                    {
                      "url": "http://hl7.org/fhir/us/davinci-deqm/StructureDefinition/extension-populationReference",
                      "valueCodeableConcept": {
                        "coding": [
                          {
                            "system": "http://teminology.hl7.org/CodeSystem/measure-population",
                            "code": "initial-population",
                            "display": "initial-population"
                          }
                        ]
                      }
                    }
                  ],
                  "reference": "Patient/numer-EXM124"
                },
                {
                  "extension": [
                    {
                      "url": "http://hl7.org/fhir/us/davinci-deqm/StructureDefinition/extension-populationReference",
                      "valueCodeableConcept": {
                        "coding": [
                          {
                            "system": "http://teminology.hl7.org/CodeSystem/measure-population",
                            "code": "initial-population",
                            "display": "initial-population"
                          }
                        ]
                      }
                    }
                  ],
                  "reference": "Encounter/numer-EXM124-2"
                },
                {
                  "extension": [
                    {
                      "url": "http://hl7.org/fhir/us/davinci-deqm/StructureDefinition/extension-populationReference",
                      "valueCodeableConcept": {
                        "coding": [
                          {
                            "system": "http://teminology.hl7.org/CodeSystem/measure-population",
                            "code": "initial-population",
                            "display": "initial-population"
                          }
                        ]
                      }
                    }
                  ],
                  "reference": "Patient/numer-EXM124"
                },
                {
                  "extension": [
                    {
                      "url": "http://hl7.org/fhir/us/davinci-deqm/StructureDefinition/extension-populationReference",
                      "valueCodeableConcept": {
                        "coding": [
                          {
                            "system": "http://teminology.hl7.org/CodeSystem/measure-population",
                            "code": "initial-population",
                            "display": "initial-population"
                          }
                        ]
                      }
                    }
                  ],
                  "reference": "Encounter/numer-EXM124-2"
                },
                {
                  "extension": [
                    {
                      "url": "http://hl7.org/fhir/us/davinci-deqm/StructureDefinition/extension-populationReference",
                      "valueCodeableConcept": {
                        "coding": [
                          {
                            "system": "http://teminology.hl7.org/CodeSystem/measure-population",
                            "code": "initial-population",
                            "display": "initial-population"
                          }
                        ]
                      }
                    }
                  ],
                  "reference": "Patient/numer-EXM124"
                },
                {
                  "extension": [
                    {
                      "url": "http://hl7.org/fhir/us/davinci-deqm/StructureDefinition/extension-populationReference",
                      "valueCodeableConcept": {
                        "coding": [
                          {
                            "system": "http://teminology.hl7.org/CodeSystem/measure-population",
                            "code": "initial-population",
                            "display": "initial-population"
                          }
                        ]
                      }
                    }
                  ],
                  "reference": "Encounter/numer-EXM124-2"
                }
              ]
            }
          },
          {
            "resource": {
              "resourceType": "DetectedIssue",
              "id": "b35696d8-360f-44a8-a8b3-df1f6a5bc11d",
              "status": "final",
              "code": {
                "coding": [
                  {
                    "system": "http://hl7.org/fhir/us/davinci-deqm/CodeSystem/detectedissue-category",
                    "code": "care-gap",
                    "display": "Gap in Care Detected"
                  }
                ]
              },
              "patient": {
                "reference": "Patient/numer-EXM124"
              },
              "evidence": [
                {
                  "detail": [
                    {
                      "reference": "MeasureReport/c5feb307-6d95-4384-b620-a5a641cf3588"
                    }
                  ]
                }
              ]
            }
          },
          {
            "resource": {
              "resourceType": "DetectedIssue",
              "id": "bc1f408c-cf1b-424a-85cb-3392922ab605",
              "status": "final",
              "code": {
                "coding": [
                  {
                    "system": "http://hl7.org/fhir/us/davinci-deqm/CodeSystem/detectedissue-category",
                    "code": "care-gap",
                    "display": "Gap in Care Detected"
                  }
                ]
              },
              "patient": {
                "reference": "Patient/numer-EXM124"
              },
              "evidence": [
                {
                  "detail": [
                    {
                      "reference": "MeasureReport/0a706a71-5fdc-4b54-8180-88901feee284"
                    }
                  ]
                }
              ]
            }
          }
        ]
      }
    }
  ]
}