{
  "resourceType": "Parameters",
  "id": "all-gaps-Group_gaps-subject-group01-report",
  "parameter": [
    {
      "name": "Gaps in Care Report - Patient/numer-EXM130",
      "resource": {
        "resourceType": "Bundle",
        "type": "document",
        "timestamp": "2020-09-08T12:12:25.042-06:00",
        "entry": [
          {
            "resource": {
              "resourceType": "Composition",
              "status": "final",
              "type": {
                "coding": [
                  {
                    "system": "http://hl7.org/fhir/us/davinci-deqm/CodeSystem/gaps-doc-type",
                    "code": "gaps-doc",
                    "display": "Gaps in Care Report"
                  }
                ]
              },
              "subject": {
                "reference": "Patient/numer-EXM130"
              },
              "date": "2020-09-08T12:12:25-06:00",
              "title": "Care Gap Report for Patient/numer-EXM130",
              "section": [
                {
                  "title": "Cervical Cancer Screening",
                  "focus": {
                    "reference": "MeasureReport/643b6ada-fdb3-4500-b7e6-c9522684da2b"
                  },
                  "entry": [
                    {
                      "reference": "DetectedIssue/d7264a20-a892-4c80-b3bd-d594bd60826b"
                    }
                  ]
                }
              ]
            }
          },
          {
            "resource": {
              "resourceType": "MeasureReport",
              "id": "643b6ada-fdb3-4500-b7e6-c9522684da2b",
              "meta": {
                "profile": [
                  "http://hl7.org/fhir/us/davinci-deqm/StructureDefinition/indv-measurereport-deqm"
                ]
              },
              "status": "complete",
              "type": "individual",
              "measure": "Measure/measure-EXM124-9.0.000",
              "subject": {
                "reference": "Patient/numer-EXM130"
              },
              "date": "2020-09-08T12:12:26-06:00",
              "reporter": {
                "reference": "Organization/1553"
              },
              "period": {
                "start": "2020-01-01T00:00:00-07:00",
                "end": "2020-12-31T00:00:00-07:00"
              },
              "improvementNotation": {
                "coding": [
                  {
                    "system": "http://terminology.hl7.org/CodeSystem/measure-improvement-notation",
                    "code": "increase"
                  }
                ]
              },
              "group": [
                {
                  "id": "group-1",
                  "population": [
                    {
                      "code": {
                        "coding": [
                          {
                            "system": "http://terminology.hl7.org/CodeSystem/measure-population",
                            "code": "initial-population",
                            "display": "Initial Population"
                          }
                        ]
                      },
                      "count": 0
                    },
                    {
                      "code": {
                        "coding": [
                          {
                            "system": "http://terminology.hl7.org/CodeSystem/measure-population",
                            "code": "numerator",
                            "display": "Numerator"
                          }
                        ]
                      },
                      "count": 0
                    },
                    {
                      "code": {
                        "coding": [
                          {
                            "system": "http://terminology.hl7.org/CodeSystem/measure-population",
                            "code": "denominator",
                            "display": "Denominator"
                          }
                        ]
                      },
                      "count": 0
                    },
                    {
                      "code": {
                        "coding": [
                          {
                            "system": "http://terminology.hl7.org/CodeSystem/measure-population",
                            "code": "denominator-exclusion",
                            "display": "Denominator Exclusion"
                          }
                        ]
                      },
                      "count": 0
                    }
                  ]
                }
              ],
              "evaluatedResource": [
                {
                  "extension": [
                    {
                      "url": "http://hl7.org/fhir/us/davinci-deqm/StructureDefinition/extension-populationReference",
                      "valueCodeableConcept": {
                        "coding": [
                          {
                            "system": "http://teminology.hl7.org/CodeSystem/measure-population",
                            "code": "initial-population",
                            "display": "initial-population"
                          }
                        ]
                      }
                    }
                  ],
                  "reference": "Patient/numer-EXM130"
                },
                {
                  "extension": [
                    {
                      "url": "http://hl7.org/fhir/us/davinci-deqm/StructureDefinition/extension-populationReference",
                      "valueCodeableConcept": {
                        "coding": [
                          {
                            "system": "http://teminology.hl7.org/CodeSystem/measure-population",
                            "code": "initial-population",
                            "display": "initial-population"
                          }
                        ]
                      }
                    }
                  ],
                  "reference": "Encounter/numer-EXM130-4"
                }
              ]
            }
          },
          {
            "resource": {
              "resourceType": "DetectedIssue",
              "id": "d7264a20-a892-4c80-b3bd-d594bd60826b",
              "status": "final",
              "code": {
                "coding": [
                  {
                    "system": "http://hl7.org/fhir/us/davinci-deqm/CodeSystem/detectedissue-category",
                    "code": "care-gap",
                    "display": "Gap in Care Detected"
                  }
                ]
              },
              "patient": {
                "reference": "Patient/numer-EXM130"
              },
              "evidence": [
                {
                  "detail": [
                    {
                      "reference": "MeasureReport/643b6ada-fdb3-4500-b7e6-c9522684da2b"
                    }
                  ]
                }
              ]
            }
          }
        ]
      }
    },
    {
      "name": "Gaps in Care Report - Patient/numer-EXM125",
      "resource": {
        "resourceType": "Bundle",
        "type": "document",
        "timestamp": "2020-09-08T12:12:26.970-06:00",
        "entry": [
          {
            "resource": {
              "resourceType": "Composition",
              "status": "final",
              "type": {
                "coding": [
                  {
                    "system": "http://hl7.org/fhir/us/davinci-deqm/CodeSystem/gaps-doc-type",
                    "code": "gaps-doc",
                    "display": "Gaps in Care Report"
                  }
                ]
              },
              "subject": {
                "reference": "Patient/numer-EXM125"
              },
              "date": "2020-09-08T12:12:26-06:00",
              "title": "Care Gap Report for Patient/numer-EXM125",
              "section": [
                {
                  "title": "Cervical Cancer Screening",
                  "focus": {
                    "reference": "MeasureReport/7ef14378-2f54-48fb-9a45-cd4ae6da2907"
                  },
                  "entry": [
                    {
                      "reference": "DetectedIssue/dce36fac-e8b5-42bb-86fb-c5a1a77b94b5"
                    }
                  ]
                }
              ]
            }
          },
          {
            "resource": {
              "resourceType": "MeasureReport",
              "id": "7ef14378-2f54-48fb-9a45-cd4ae6da2907",
              "meta": {
                "profile": [
                  "http://hl7.org/fhir/us/davinci-deqm/StructureDefinition/indv-measurereport-deqm"
                ]
              },
              "status": "complete",
              "type": "individual",
              "measure": "Measure/measure-EXM124-9.0.000",
              "subject": {
                "reference": "Patient/numer-EXM125"
              },
              "date": "2020-09-08T12:12:31-06:00",
              "reporter": {
                "reference": "Organization/1553"
              },
              "period": {
                "start": "2020-01-01T00:00:00-07:00",
                "end": "2020-12-31T00:00:00-07:00"
              },
              "improvementNotation": {
                "coding": [
                  {
                    "system": "http://terminology.hl7.org/CodeSystem/measure-improvement-notation",
                    "code": "increase"
                  }
                ]
              },
              "group": [
                {
                  "id": "group-1",
                  "population": [
                    {
                      "code": {
                        "coding": [
                          {
                            "system": "http://terminology.hl7.org/CodeSystem/measure-population",
                            "code": "initial-population",
                            "display": "Initial Population"
                          }
                        ]
                      },
                      "count": 1
                    },
                    {
                      "code": {
                        "coding": [
                          {
                            "system": "http://terminology.hl7.org/CodeSystem/measure-population",
                            "code": "numerator",
                            "display": "Numerator"
                          }
                        ]
                      },
                      "count": 0
                    },
                    {
                      "code": {
                        "coding": [
                          {
                            "system": "http://terminology.hl7.org/CodeSystem/measure-population",
                            "code": "denominator",
                            "display": "Denominator"
                          }
                        ]
                      },
                      "count": 1
                    },
                    {
                      "code": {
                        "coding": [
                          {
                            "system": "http://terminology.hl7.org/CodeSystem/measure-population",
                            "code": "denominator-exclusion",
                            "display": "Denominator Exclusion"
                          }
                        ]
                      },
                      "count": 0
                    }
                  ],
                  "measureScore": {
                    "value": 0.0
                  }
                }
              ],
              "evaluatedResource": [
                {
                  "extension": [
                    {
                      "url": "http://hl7.org/fhir/us/davinci-deqm/StructureDefinition/extension-populationReference",
                      "valueCodeableConcept": {
                        "coding": [
                          {
                            "system": "http://teminology.hl7.org/CodeSystem/measure-population",
                            "code": "initial-population",
                            "display": "initial-population"
                          }
                        ]
                      }
                    }
                  ],
                  "reference": "Patient/numer-EXM125"
                },
                {
                  "extension": [
                    {
                      "url": "http://hl7.org/fhir/us/davinci-deqm/StructureDefinition/extension-populationReference",
                      "valueCodeableConcept": {
                        "coding": [
                          {
                            "system": "http://teminology.hl7.org/CodeSystem/measure-population",
                            "code": "initial-population",
                            "display": "initial-population"
                          }
                        ]
                      }
                    }
                  ],
                  "reference": "Encounter/numer-EXM125-1"
                }
              ]
            }
          },
          {
            "resource": {
              "resourceType": "DetectedIssue",
              "id": "dce36fac-e8b5-42bb-86fb-c5a1a77b94b5",
              "status": "final",
              "code": {
                "coding": [
                  {
                    "system": "http://hl7.org/fhir/us/davinci-deqm/CodeSystem/detectedissue-category",
                    "code": "care-gap",
                    "display": "Gap in Care Detected"
                  }
                ]
              },
              "patient": {
                "reference": "Patient/numer-EXM125"
              },
              "evidence": [
                {
                  "detail": [
                    {
                      "reference": "MeasureReport/7ef14378-2f54-48fb-9a45-cd4ae6da2907"
                    }
                  ]
                }
              ]
            }
          }
        ]
      }
    },
    {
      "name": "Gaps in Care Report - Patient/numer-EXM124",
      "resource": {
        "resourceType": "Bundle",
        "type": "document",
        "timestamp": "2020-09-08T12:12:31.752-06:00",
        "entry": [
          {
            "resource": {
              "resourceType": "Composition",
              "status": "final",
              "type": {
                "coding": [
                  {
                    "system": "http://hl7.org/fhir/us/davinci-deqm/CodeSystem/gaps-doc-type",
                    "code": "gaps-doc",
                    "display": "Gaps in Care Report"
                  }
                ]
              },
              "subject": {
                "reference": "Patient/numer-EXM124"
              },
              "date": "2020-09-08T12:12:31-06:00",
              "title": "Care Gap Report for Patient/numer-EXM124",
              "section": [
                {
                  "title": "Cervical Cancer Screening",
                  "focus": {
                    "reference": "MeasureReport/6a99f02a-02d0-4352-9f08-98d3712b7198"
                  },
                  "text": {
                    "status": "generated",
                    "div": "<div xmlns=\"http://www.w3.org/1999/xhtml\"><p>No detected issues.</p></div>"
                  }
                }
              ]
            }
          },
          {
            "resource": {
              "resourceType": "MeasureReport",
              "id": "6a99f02a-02d0-4352-9f08-98d3712b7198",
              "meta": {
                "profile": [
                  "http://hl7.org/fhir/us/davinci-deqm/StructureDefinition/indv-measurereport-deqm"
                ]
              },
              "status": "complete",
              "type": "individual",
              "measure": "Measure/measure-EXM124-9.0.000",
              "subject": {
                "reference": "Patient/numer-EXM124"
              },
              "date": "2020-09-08T12:12:37-06:00",
              "reporter": {
                "reference": "Organization/1553"
              },
              "period": {
                "start": "2020-01-01T00:00:00-07:00",
                "end": "2020-12-31T00:00:00-07:00"
              },
              "improvementNotation": {
                "coding": [
                  {
                    "system": "http://terminology.hl7.org/CodeSystem/measure-improvement-notation",
                    "code": "increase"
                  }
                ]
              },
              "group": [
                {
                  "id": "group-1",
                  "population": [
                    {
                      "code": {
                        "coding": [
                          {
                            "system": "http://terminology.hl7.org/CodeSystem/measure-population",
                            "code": "initial-population",
                            "display": "Initial Population"
                          }
                        ]
                      },
                      "count": 1
                    },
                    {
                      "code": {
                        "coding": [
                          {
                            "system": "http://terminology.hl7.org/CodeSystem/measure-population",
                            "code": "numerator",
                            "display": "Numerator"
                          }
                        ]
                      },
                      "count": 1
                    },
                    {
                      "code": {
                        "coding": [
                          {
                            "system": "http://terminology.hl7.org/CodeSystem/measure-population",
                            "code": "denominator",
                            "display": "Denominator"
                          }
                        ]
                      },
                      "count": 1
                    },
                    {
                      "code": {
                        "coding": [
                          {
                            "system": "http://terminology.hl7.org/CodeSystem/measure-population",
                            "code": "denominator-exclusion",
                            "display": "Denominator Exclusion"
                          }
                        ]
                      },
                      "count": 0
                    }
                  ],
                  "measureScore": {
                    "value": 1.0
                  }
                }
              ],
              "evaluatedResource": [
                {
                  "extension": [
                    {
                      "url": "http://hl7.org/fhir/us/davinci-deqm/StructureDefinition/extension-populationReference",
                      "valueCodeableConcept": {
                        "coding": [
                          {
                            "system": "http://teminology.hl7.org/CodeSystem/measure-population",
                            "code": "initial-population",
                            "display": "initial-population"
                          }
                        ]
                      }
                    }
                  ],
                  "reference": "Observation/numer-EXM124-3"
                },
                {
                  "extension": [
                    {
                      "url": "http://hl7.org/fhir/us/davinci-deqm/StructureDefinition/extension-populationReference",
                      "valueCodeableConcept": {
                        "coding": [
                          {
                            "system": "http://teminology.hl7.org/CodeSystem/measure-population",
                            "code": "initial-population",
                            "display": "initial-population"
                          }
                        ]
                      }
                    }
                  ],
                  "reference": "Patient/numer-EXM124"
                },
                {
                  "extension": [
                    {
                      "url": "http://hl7.org/fhir/us/davinci-deqm/StructureDefinition/extension-populationReference",
                      "valueCodeableConcept": {
                        "coding": [
                          {
                            "system": "http://teminology.hl7.org/CodeSystem/measure-population",
                            "code": "initial-population",
                            "display": "initial-population"
                          }
                        ]
                      }
                    }
                  ],
                  "reference": "Encounter/numer-EXM124-2"
                }
              ]
            }
          }
        ]
      }
    }
  ]
}