{
  "resourceType": "Parameters",
  "id": "open-gap-Group_gaps-subject-group01-report",
  "parameter": [
    {
      "name": "Gaps in Care Report - Patient/numer-EXM130",
      "resource": {
        "resourceType": "Bundle",
        "type": "document",
        "timestamp": "2020-09-08T12:10:38.799-06:00",
        "entry": [
          {
            "resource": {
              "resourceType": "Composition",
              "status": "final",
              "type": {
                "coding": [
                  {
                    "system": "http://hl7.org/fhir/us/davinci-deqm/CodeSystem/gaps-doc-type",
                    "code": "gaps-doc",
                    "display": "Gaps in Care Report"
                  }
                ]
              },
              "subject": {
                "reference": "Patient/numer-EXM130"
              },
              "date": "2020-09-08T12:10:38-06:00",
              "title": "Care Gap Report for Patient/numer-EXM130",
              "section": [
                {
                  "title": "Cervical Cancer Screening",
                  "focus": {
                    "reference": "MeasureReport/be23d88e-791d-4d90-a8c9-9f1454efe3cb"
                  },
                  "entry": [
                    {
                      "reference": "DetectedIssue/6ca7b01a-ece2-4379-ac80-941598273315"
                    }
                  ]
                }
              ]
            }
          },
          {
            "resource": {
              "resourceType": "MeasureReport",
              "id": "be23d88e-791d-4d90-a8c9-9f1454efe3cb",
              "meta": {
                "profile": [
                  "http://hl7.org/fhir/us/davinci-deqm/StructureDefinition/indv-measurereport-deqm"
                ]
              },
              "status": "complete",
              "type": "individual",
              "measure": "Measure/measure-EXM124-9.0.000",
              "subject": {
                "reference": "Patient/numer-EXM130"
              },
              "date": "2020-09-08T12:10:40-06:00",
              "reporter": {
                "reference": "Organization/1553"
              },
              "period": {
                "start": "2020-01-01T00:00:00-07:00",
                "end": "2020-12-31T00:00:00-07:00"
              },
              "improvementNotation": {
                "coding": [
                  {
                    "system": "http://terminology.hl7.org/CodeSystem/measure-improvement-notation",
                    "code": "increase"
                  }
                ]
              },
              "group": [
                {
                  "id": "group-1",
                  "population": [
                    {
                      "code": {
                        "coding": [
                          {
                            "system": "http://terminology.hl7.org/CodeSystem/measure-population",
                            "code": "initial-population",
                            "display": "Initial Population"
                          }
                        ]
                      },
                      "count": 0
                    },
                    {
                      "code": {
                        "coding": [
                          {
                            "system": "http://terminology.hl7.org/CodeSystem/measure-population",
                            "code": "numerator",
                            "display": "Numerator"
                          }
                        ]
                      },
                      "count": 0
                    },
                    {
                      "code": {
                        "coding": [
                          {
                            "system": "http://terminology.hl7.org/CodeSystem/measure-population",
                            "code": "denominator",
                            "display": "Denominator"
                          }
                        ]
                      },
                      "count": 0
                    },
                    {
                      "code": {
                        "coding": [
                          {
                            "system": "http://terminology.hl7.org/CodeSystem/measure-population",
                            "code": "denominator-exclusion",
                            "display": "Denominator Exclusion"
                          }
                        ]
                      },
                      "count": 0
                    }
                  ]
                }
              ],
              "evaluatedResource": [
                {
                  "extension": [
                    {
                      "url": "http://hl7.org/fhir/us/davinci-deqm/StructureDefinition/extension-populationReference",
                      "valueCodeableConcept": {
                        "coding": [
                          {
                            "system": "http://teminology.hl7.org/CodeSystem/measure-population",
                            "code": "initial-population",
                            "display": "initial-population"
                          }
                        ]
                      }
                    }
                  ],
                  "reference": "Patient/numer-EXM130"
                },
                {
                  "extension": [
                    {
                      "url": "http://hl7.org/fhir/us/davinci-deqm/StructureDefinition/extension-populationReference",
                      "valueCodeableConcept": {
                        "coding": [
                          {
                            "system": "http://teminology.hl7.org/CodeSystem/measure-population",
                            "code": "initial-population",
                            "display": "initial-population"
                          }
                        ]
                      }
                    }
                  ],
                  "reference": "Encounter/numer-EXM130-4"
                }
              ]
            }
          },
          {
            "resource": {
              "resourceType": "DetectedIssue",
              "id": "6ca7b01a-ece2-4379-ac80-941598273315",
              "status": "final",
              "code": {
                "coding": [
                  {
                    "system": "http://hl7.org/fhir/us/davinci-deqm/CodeSystem/detectedissue-category",
                    "code": "care-gap",
                    "display": "Gap in Care Detected"
                  }
                ]
              },
              "patient": {
                "reference": "Patient/numer-EXM130"
              },
              "evidence": [
                {
                  "detail": [
                    {
                      "reference": "MeasureReport/be23d88e-791d-4d90-a8c9-9f1454efe3cb"
                    }
                  ]
                }
              ]
            }
          }
        ]
      }
    },
    {
      "name": "Gaps in Care Report - Patient/numer-EXM125",
      "resource": {
        "resourceType": "Bundle",
        "type": "document",
        "timestamp": "2020-09-08T12:10:40.588-06:00",
        "entry": [
          {
            "resource": {
              "resourceType": "Composition",
              "status": "final",
              "type": {
                "coding": [
                  {
                    "system": "http://hl7.org/fhir/us/davinci-deqm/CodeSystem/gaps-doc-type",
                    "code": "gaps-doc",
                    "display": "Gaps in Care Report"
                  }
                ]
              },
              "subject": {
                "reference": "Patient/numer-EXM125"
              },
              "date": "2020-09-08T12:10:40-06:00",
              "title": "Care Gap Report for Patient/numer-EXM125",
              "section": [
                {
                  "title": "Cervical Cancer Screening",
                  "focus": {
                    "reference": "MeasureReport/c304981b-b5dc-4fd8-99dc-27e167bd37b9"
                  },
                  "entry": [
                    {
                      "reference": "DetectedIssue/6e95c3c1-7653-4f85-af7e-95027f4128ea"
                    }
                  ]
                }
              ]
            }
          },
          {
            "resource": {
              "resourceType": "MeasureReport",
              "id": "c304981b-b5dc-4fd8-99dc-27e167bd37b9",
              "meta": {
                "profile": [
                  "http://hl7.org/fhir/us/davinci-deqm/StructureDefinition/indv-measurereport-deqm"
                ]
              },
              "status": "complete",
              "type": "individual",
              "measure": "Measure/measure-EXM124-9.0.000",
              "subject": {
                "reference": "Patient/numer-EXM125"
              },
              "date": "2020-09-08T12:10:42-06:00",
              "reporter": {
                "reference": "Organization/1553"
              },
              "period": {
                "start": "2020-01-01T00:00:00-07:00",
                "end": "2020-12-31T00:00:00-07:00"
              },
              "improvementNotation": {
                "coding": [
                  {
                    "system": "http://terminology.hl7.org/CodeSystem/measure-improvement-notation",
                    "code": "increase"
                  }
                ]
              },
              "group": [
                {
                  "id": "group-1",
                  "population": [
                    {
                      "code": {
                        "coding": [
                          {
                            "system": "http://terminology.hl7.org/CodeSystem/measure-population",
                            "code": "initial-population",
                            "display": "Initial Population"
                          }
                        ]
                      },
                      "count": 1
                    },
                    {
                      "code": {
                        "coding": [
                          {
                            "system": "http://terminology.hl7.org/CodeSystem/measure-population",
                            "code": "numerator",
                            "display": "Numerator"
                          }
                        ]
                      },
                      "count": 0
                    },
                    {
                      "code": {
                        "coding": [
                          {
                            "system": "http://terminology.hl7.org/CodeSystem/measure-population",
                            "code": "denominator",
                            "display": "Denominator"
                          }
                        ]
                      },
                      "count": 1
                    },
                    {
                      "code": {
                        "coding": [
                          {
                            "system": "http://terminology.hl7.org/CodeSystem/measure-population",
                            "code": "denominator-exclusion",
                            "display": "Denominator Exclusion"
                          }
                        ]
                      },
                      "count": 0
                    }
                  ],
                  "measureScore": {
                    "value": 0.0
                  }
                }
              ],
              "evaluatedResource": [
                {
                  "extension": [
                    {
                      "url": "http://hl7.org/fhir/us/davinci-deqm/StructureDefinition/extension-populationReference",
                      "valueCodeableConcept": {
                        "coding": [
                          {
                            "system": "http://teminology.hl7.org/CodeSystem/measure-population",
                            "code": "initial-population",
                            "display": "initial-population"
                          }
                        ]
                      }
                    }
                  ],
                  "reference": "Patient/numer-EXM125"
                },
                {
                  "extension": [
                    {
                      "url": "http://hl7.org/fhir/us/davinci-deqm/StructureDefinition/extension-populationReference",
                      "valueCodeableConcept": {
                        "coding": [
                          {
                            "system": "http://teminology.hl7.org/CodeSystem/measure-population",
                            "code": "initial-population",
                            "display": "initial-population"
                          }
                        ]
                      }
                    }
                  ],
                  "reference": "Encounter/numer-EXM125-1"
                }
              ]
            }
          },
          {
            "resource": {
              "resourceType": "DetectedIssue",
              "id": "6e95c3c1-7653-4f85-af7e-95027f4128ea",
              "status": "final",
              "code": {
                "coding": [
                  {
                    "system": "http://hl7.org/fhir/us/davinci-deqm/CodeSystem/detectedissue-category",
                    "code": "care-gap",
                    "display": "Gap in Care Detected"
                  }
                ]
              },
              "patient": {
                "reference": "Patient/numer-EXM125"
              },
              "evidence": [
                {
                  "detail": [
                    {
                      "reference": "MeasureReport/c304981b-b5dc-4fd8-99dc-27e167bd37b9"
                    }
                  ]
                }
              ]
            }
          }
        ]
      }
    }
  ]
}